accel_x,accel_y,accel_z,target_road
1.3076562198692883,5.352655984887231,9.1816303217894,2
-4.0154052634351105,0.5003695624718842,4.4804122777914035,1
1.1335560192433083,-1.7919779860825105,12.09760717730144,1
0.2500637348595549,-2.4735591178948457,9.894654806544674,1
0.005008195316998001,-0.09130485742278868,10.695351590180314,0
-0.22296911103468314,-3.143881519389292,11.010742188852518,1
-0.2014392682892445,0.053096155907847435,10.482034798735892,0
2.918349259937575,-7.202122686434081,15.217684993739198,2
0.3864507593751392,0.3560650112141455,9.998729871706763,1
0.09295944514488828,0.34932772781382426,10.323224301788626,0
-0.2177324966621299,0.024801418438466782,9.780130353502003,0
1.7895933655218537,1.287054042967094,6.468859704074497,1
0.06092969744238091,-0.07743667173183601,9.69199712726728,0
-1.1489795870186887,-0.021826817178797434,11.915449450311481,2
-0.6513142048838836,2.418464305978973,9.783469428665052,1
0.29197528342588824,0.09303045281349653,10.469686672541025,0
-2.7104902019116177,0.3970711591523786,14.638957623289194,1
0.5430123053263931,-2.2025780704302793,10.205699227441484,1
-1.2572885141790957,-2.7705449190627904,15.105420442228555,2
-1.185225381196133,2.52989853416209,7.929227199990564,1
0.02104796279141078,-1.2023525387095924,8.473343685133777,1
-0.17363365849484214,0.1435751308774472,9.889981216218132,0
0.02059745243084231,-0.02363807134967382,10.185770509395086,0
-2.562596708744364,0.1944291354623125,9.335529392228572,1
2.9110911073153853,0.9305410155222824,6.8296441272851425,2
0.24295969396170447,-0.1070696218093177,9.496165111741544,0
-0.08595494898452694,0.044101891912565194,9.672048162286574,0
-0.02080301707065048,0.03234715689354466,9.815266134291637,0
2.8372831000149867,0.24448936389659462,7.21742386199602,2
-0.25356874688690634,1.616997872409502,12.512904772579306,1
-0.14077884881100372,-1.601664876623544,12.319425973913809,2
0.16562880029932117,-0.07710139824541075,9.606915552096194,0
-1.3263442267936667,0.24499626650788678,8.945872372468854,1
0.11024914915190549,0.14514055926396185,9.98080710088175,0
-0.4549588178566877,0.10525512340843618,11.39842582576627,1
1.722550298710254,4.887552167525148,12.807240367349618,2
-0.16430422366335348,-0.005938978682611253,10.010254049771813,0
0.9828572982439183,-0.5805577715653001,6.1803015285534215,1
2.6397794464321063,-4.965201418364563,13.797735731949004,2
-8.262159829782336,-3.641663216182172,-0.6183542652971532,2
1.7136970296416465,1.7843153860575502,16.033402467169687,1
-4.4711782464791225,2.1904421895397643,8.963055555428578,2
0.026056125354420437,0.4396393872705724,9.16745382925909,0
-2.8396918706260585,6.131841156736887,19.040909247966027,2
2.167804145430022,0.1589829970644195,9.75734050043689,1
-0.1797032297896438,0.44342799620597256,10.298442696818485,0
2.57964974697201,0.6288239583422843,6.3350983078729115,1
1.8091236153821528,2.339326242290925,5.212814172000403,1
1.8295392271732793,0.11581437100863065,8.308611782559144,1
-1.644948892110824,-2.403522774121382,5.387590861767438,1
0.2557823876064132,0.23961622406801114,9.439919367955733,0
-0.15286234732711013,0.27428422323345014,9.523019085571944,0
2.8218942808511134,-1.2124692663292123,14.76641177365373,2
-0.7566874163662312,1.756076687794833,5.002000472291983,2
-0.3483949332076598,-0.07891242926196493,14.032931223253819,1
-0.0006565550001103965,0.13109691292914696,10.182633453881525,0
-0.06995423745233946,0.37272989067992657,8.682569134054956,0
0.13161372887520079,-0.0034696324443315185,9.578947416261547,0
5.4509143626241325,4.300023345644316,12.934835453084371,2
-2.1061359644789515,-0.2169872423263557,14.084924508717071,1
0.3055888556248161,-3.1502369813329594,12.95600124566646,1
-0.14371741981786648,0.2304752534458404,9.142537697199812,0
-3.411924902841088,-6.361949217421389,4.776755331874488,2
0.07142736179032941,-1.477536029625805,4.157433723037787,1
1.0939134857920745,1.5492490905033702,7.900327399857048,1
0.9493650714764335,-3.6802633305260626,9.27621579026379,1
-0.1523046912940943,0.27734598838635577,9.820363833983738,0
-0.22391724103250332,-0.326091338751639,8.847087143253782,0
-0.17910251897897264,1.343531851769458,6.123029595036463,1
0.16021746426023128,0.04937237283889136,9.665773693819075,0
0.05675341143950664,-0.07263145389325822,9.75061526002592,0
2.532112668224204,0.26000322384893915,3.320528450381177,2
-0.8564555819540698,1.0689669322577329,12.575747986160229,1
-0.21503502750921735,-0.11285844394724663,10.4545366932714,0
-0.14605857403289252,-0.12315687987614576,10.285362668785138,0
-0.09529826129143526,-0.06168019850370864,10.050481584080623,0
-1.1046416734067772,-1.1638525699518014,8.536594053789667,1
0.6526361081651155,1.0581118909115022,8.388915799438264,1
0.6518436639405476,0.13713897593211044,8.2955152545726,1
0.22510033002329158,-0.021173208085832125,10.04580209186683,0
-0.4658958620016046,0.9012108869150393,10.114570100056843,1
-0.6902759442391484,0.2873052615439141,5.361073467228086,1
0.08278428582476191,-0.017433469255753817,10.307450144398638,0
0.20324051142371286,-1.9219177253924182,7.947754238142965,1
0.0004553657856099021,-0.06889157864032518,9.329864358953348,0
-0.638655612766323,0.43901313526320995,12.503071869428087,1
3.726604352085109,-3.0739841286764453,2.575757124615535,2
0.2371512678791542,0.4555729280040573,3.424472522281163,1
-0.16874437666846964,-0.2827713500150462,9.929724784011398,0
0.5601756211055968,3.5802722447557507,13.718330227348776,2
-0.09819372366232858,0.015331068698709883,10.677818010472338,0
4.943058346930219,3.189443846469215,4.293789190606063,2
-0.20910461162197652,0.9145997432248946,-1.1035356464368533,2
-0.0627932994556628,-0.09188369171194571,8.949316021204993,0
-1.153697236777246,2.3850704639836184,10.126586409325776,2
0.04289528232052894,0.06999859854898889,10.111090808648724,0
0.07265311751057409,0.18208526399806743,9.646619307377915,0
0.15589787343948666,-0.1627541383399602,9.914349208146316,0
0.026176102264438252,0.12406163571369543,10.07493880042857,0
0.13486347649572267,-0.01652022366320551,10.414387416894517,0
0.3495714695160783,-0.09986260077701083,9.256991050096797,0
-0.3189949784016305,-0.04911104472774991,9.683110213918157,0
1.4280078715411926,0.004918833678885381,7.805267682584812,1
0.2930569317054568,-0.06762965910085865,10.547996672008205,0
-0.21656765098881828,0.16776883350687233,10.170879336411138,0
-1.0212590445715897,-0.10413709354018374,11.684654130782103,1
-1.2102526346389442,1.5023471610770853,8.028615745313395,1
0.16111835606496144,0.0038847881030575366,11.335859500407754,1
-1.4697799338597903,-0.32722945814768023,11.45219564158905,1
0.2065378702715479,0.003539862709935823,8.094990531239745,1
-1.181519906627569,1.196723485452209,9.097441433348031,1
-0.08924972966110635,-0.18704373181700593,9.73621360215739,0
0.3642011067522436,1.0227040274711383,8.889998583572572,1
-0.0066334063947406504,0.1268159639171787,10.241337205085712,0
0.07596944226462106,-0.2995042017082272,9.607822515914707,0
0.21609588477586128,0.10432257010810209,9.851631642696121,0
-0.13810897483662404,0.013433754442408342,9.48416722395322,0
-0.03312875605534545,-0.21113962050051616,9.977560232684503,0
-1.2285870307546003,0.7814677622406828,7.874822989974966,1
-0.07827050719435856,-0.1497788438723055,9.079736883814599,1
-0.08010974979617586,-0.25478228474791786,10.442670698560853,0
-0.2454314895687717,-0.24864047603639794,10.687059047806493,0
0.2970465200308305,1.344634800396563,9.70509623722218,1
1.3562860516367279,1.5385533594390406,8.267999476360346,1
-0.3902334970388982,-1.0282426954295754,13.19232694422855,1
-0.263973987037031,-0.15405349735473622,9.952516827827383,0
-0.09330370024014484,0.10705214384746971,10.169560476007888,0
0.14780399366119476,0.04044048062212249,10.191470857666225,0
-0.33292562561105316,-0.12273293006795481,10.41608066176936,0
3.157223100247631,-3.293101174424192,16.411191594809413,2
-1.2517802452050613,0.1704263030528313,7.480408192185633,1
-1.411346708977016,1.365305059374911,7.712057089391055,1
3.472255105875229,1.4023073133799322,13.397136176832994,2
0.11271309142061703,0.12580318841361912,9.578102023607249,0
1.3611763645660317,-4.26513501171231,4.99801384201713,2
0.1258563975348386,0.2627010801470482,9.437039646325042,0
-0.13657032474809422,-0.2933759378269541,9.570099089831423,0
2.4833895908281987,5.842152546941049,19.703463572791133,2
-0.4509990946998139,-0.08906005711503778,9.355749515923332,0
-0.042426530893206735,1.4791644471907077,9.020116013704827,1
0.22612046811295788,-0.15498029459877855,10.326836131670214,0
-0.6438176532137114,-1.9312225821989046,6.210274086332097,2
-0.1298405908251143,-0.08148453066287481,9.924574333691767,0
-0.45693429621741066,-1.7028162430107043,9.100215035210528,1
0.06192551418151215,0.09897085708180464,9.48024201965688,0
0.08273110049987288,0.17228945162804427,9.637596769939133,0
0.14584281802425833,-0.2133718376844317,10.434189083808134,0
-1.853274814980911,4.940948951467728,9.382938358100402,1
0.03778204074238846,-0.17601932541114013,9.212657493042576,0
0.03401287058885001,-0.050600988653428325,9.877457093630763,0
1.3448585578232268,1.3491535038239089,7.9605885421576055,2
-0.2792195917359498,-0.32751502354813206,9.086094820273928,0
-0.16283959980150794,-1.353050687440775,7.953271963243223,1
-0.719541769386951,-0.8471633696355566,13.890185947144852,1
0.8208275653827342,1.3008967387904942,10.885646579948096,1
-0.31968709445577,-0.24655025221177676,10.41555985692014,0
-0.02265236907537884,0.06343041045429645,9.415655666312205,0
-0.20951346510814017,0.0766278258003034,9.904420408600366,0
-0.2904109506851011,-4.752478088641969,10.390628962503357,1
0.7950446491690389,3.8938959418528385,12.339249419879398,2
0.24136317127886725,0.417167509738867,9.91709554744819,1
-0.09968600851877786,-0.04235133018531804,10.292866032161472,0
-3.601760331699997,-4.1744203194100225,11.351565248726503,1
-1.7993246816709445,6.308842296972628,11.217987701304812,2
-0.449012895519516,-0.26492234307213963,10.317531849387223,0
-2.598271569830002,-0.6021082636102147,14.222785577169745,1
-0.33604766497254845,-2.540749455650802,10.012980906349332,1
-3.4800272089763284,-2.0871930974323556,11.597548562864269,1
-0.09642891119433884,-0.04406912532992427,9.909642523182988,0
-2.3445223449769546,-1.2279092389070936,7.947447321489008,1
0.8587212067371119,-0.3204508908776807,5.359857566751137,2
3.859934203063726,-4.208518879144052,8.147923356081513,2
-0.26042918421516487,-0.12524603782567964,9.432386942603763,0
2.53212821437862,1.7058148552825023,12.156307657028101,2
-1.3234767680164286,3.3810933376886214,8.680354981223015,1
-2.1463674170049982,1.094815921906744,8.969254507330747,2
-0.3796110311497062,-0.6787442934582159,10.548493470348394,1
-0.20674321502866588,0.3732557220755427,10.295473963805865,0
0.09927650846481698,-0.4469682490666828,9.727710450334008,0
-1.713017686357108,-0.2616331522265497,8.890472278374943,1
-0.2532605529406752,-0.25290958474248065,9.794923183987276,0
-0.05143681021111887,-0.05119968129389915,10.19530072339745,0
-0.27326238234138417,0.1335016309747182,8.867343800659048,0
-0.1034955384161246,-0.20742233816923036,8.875550129364708,0
-0.38950950514359284,-0.16925310687695574,9.85633846955885,0
-0.21172433778355237,-0.20150204685564638,10.179969880416914,0
0.10894273644394536,0.19493568902385058,10.369890896934173,0
0.05013839895851893,-0.03546190331063433,10.800581742386099,0
0.046173760609636634,0.23943236215379457,10.097345567848802,0
-0.4258629435464221,-0.15473885453332828,9.61182271837211,0
-0.2530530132740289,-0.15169335910889378,9.16833250074793,0
0.7728193520648643,1.0305802462609197,11.134832676732048,1
1.7857100106767478,-0.8848706776512911,14.494343332295706,1
0.1588284168612541,-4.585866776717662,10.915517992224904,2
-2.429943422214258,2.7373117876262283,9.226123481129536,1
0.683459103700035,-8.128020398097206,12.172555602164035,2
-2.1492077663655316,-2.4136725068211033,3.707343064545798,1
0.31231375901444924,-0.18347295437571395,9.870488951581732,0
0.2955056681375543,0.32181343566011644,9.925986759010845,1
-0.20328451545430887,-0.20836351462143754,10.001188140362366,0
-1.9386298410827845,1.5875687278101986,12.619349416413524,1
0.07374053534153524,0.07648098730316828,9.80969259468117,0
2.673076057739522,3.5023278383243683,8.872007389172037,2
2.8213923880952487,2.3205650869913583,9.578938349021122,1
7.498669126793503,-1.3960023162603403,12.455025118878648,2
3.1064492789117484,-1.300138022096897,11.95691274593552,1
1.2300660710310118,0.6097901167331186,11.506222846747782,1
0.02436706601036772,-0.18343387811626413,9.960868951694511,0
-2.7375759859805693,-0.43043749544548643,13.167855490919266,2
-0.03402451206004425,-0.23680152966654472,9.977562580594732,0
-3.730014839302275,2.498480832895907,17.490859066154,2
0.07235170960132621,0.054442551834903,9.457481438399373,0
3.7878739150721428,-4.686145473647584,15.875784544164901,2
-0.16319872659406812,0.21433682153319222,10.23454381947123,0
-1.720227839809331,0.7812222938561806,15.128693301438261,1
-2.1995200169253115,-0.05832671253051891,12.004200775591434,1
-0.10361681998893611,-0.12067807201596965,9.379692966727548,0
-1.3252151008647546,1.5472797855428535,12.432138519770298,1
-4.702169646622281,1.916560562273903,13.291375881229156,2
0.01657698155387402,0.034049745218052145,9.746878824166792,0
-0.3812519036113744,-0.24351331180811725,11.644339318546821,1
0.6117972482541607,-0.4443903193005564,10.587106039687997,1
1.714278069151174,-1.6189601517290826,10.876061799464134,1
0.025601767229824702,-0.07009936662162525,9.427110318865665,0
-0.030357162817780795,0.2466817270897583,8.949716119429908,0
-0.02715003538445885,-0.022426289624166342,10.01642032252185,0
-0.849510314910695,-1.5313700577338762,9.60074378993089,1
0.3951273102478487,0.2635210244120676,10.052239703846094,0
0.03809006803348212,-0.11604763873439752,8.97539563223531,0
-0.18818122659861725,0.09912650027807889,10.315209823064672,0
-2.2661690356304565,1.485871815178775,9.173583789785802,1
0.22662722825066944,-0.03478052802422075,8.74767085634863,0
-0.11581120561713441,0.13472832348131444,9.422302888957121,0
-0.0653582420985105,0.041267718988132,9.77811595412564,0
-0.423696671465556,2.9276527285279066,3.0724150432989035,2
0.10674617425035093,0.1749710616923742,9.801166037308784,0
0.08546092432598312,-0.10441067178407011,10.046803323036556,0
0.1576702500434155,1.812399665727721,9.194070239743832,1
0.02448705966778139,0.14447443985286254,9.722358243046177,0
0.45609447281489324,0.08971785034576527,9.83574580307803,0
-0.7558017565183781,-0.4370406047333653,10.800340912575598,1
0.17371857368547824,0.047178651549413614,9.25308339859914,0
-0.046817456409714936,0.10789023463572296,9.507924160293406,0
-0.2317074794785413,-0.12430450215528673,9.4810582708593,0
-2.7286295127643148,-1.7956478294774934,14.504084866760024,1
-2.9453703323342735,-1.8921839850633861,9.445170316516965,1
2.249799180880402,-1.7952570244988402,23.963888834778626,2
-0.6495241464965684,-1.326438833354331,12.558703653997325,1
-3.201998068757336,-1.2010686204232441,12.184165201803749,1
-0.11270372953972588,-0.09074233856438786,10.655913404527062,0
0.07081549520028636,0.19201219884021006,10.157399401704724,0
-0.16445860872392068,0.5717231012841683,9.498449305181966,0
3.139737199196988,-2.9152722038374197,7.933791474766275,2
1.78862854245285,0.4704794423501759,7.405387130886474,1
0.13006698731961072,-0.06258151589812386,9.873839970759706,0
-0.3366479308374827,-2.612136194653892,7.582771194882542,2
-0.06918649395263067,0.11834567977197448,9.372699862927886,0
-0.20639070311930455,-0.34772148597297503,9.466285626077122,0
-0.23164290757137151,-0.15366415782228296,10.300640057304776,0
0.16818731507506957,-0.17240194603866071,10.767288202842419,0
0.03575879361441608,-0.09771184649988729,9.189178140089432,0
-0.05235630179453335,-0.525820228602303,5.446374874917973,1
-0.5621837897819632,0.7953868733929179,11.492890489912526,1
3.0725638696963617,1.9475659530152152,13.15071625605503,1
1.9735969461794547,0.9630269210069466,8.3071980916367,1
-0.18383122118915027,0.23403108961408156,8.875832605266064,0
-1.09118831638951,0.8996356736076738,11.773752689534488,1
1.6159180620390943,-1.1162232869977053,10.572331297691784,1
0.10810631575980237,-0.12947282336789762,9.574756161057099,0
1.6070676615392057,-1.3449044029450758,9.625656158417865,1
-0.30312377456737905,-0.1869713404606808,10.033970316425728,0
-1.602073792851093,0.3020225130750764,6.7184232458848,1
-0.021519663648173537,-0.020339832118491503,9.607705593537359,0
-3.0501461674756936,2.8734396752832576,6.185918511814391,2
0.011485595423538303,-0.5039339652987652,10.119441035352727,0
0.22141509472811755,-0.09027350715998238,9.78031671750248,0
-0.6920169711789486,0.4137572269990374,12.930553846708838,1
-2.1946993642632093,0.4685252626285243,8.909755709432305,1
0.031235215335798996,-0.254376384578802,9.425947094962101,0
-0.05524288130514125,-1.044517127138938,11.23984689610178,1
-0.06225066353581593,-0.42997715058848107,10.036047148922172,0
0.20963576784558874,-0.03504799639347798,8.240749191285044,0
2.206453527519514,-0.4413970884306141,11.413031373045262,1
-0.2256574935546457,-0.35908271408115916,9.578099218067909,0
-2.1896824371721637,1.8835621396419184,11.785764085631998,1
-0.33216433380899946,0.8547600969103704,12.1457518460092,1
0.03733277873104084,-0.14396666760002177,10.224423475589312,0
-3.0311900397857636,-1.7743854181902727,18.049161201886697,2
0.4269443038815913,3.0700293369379397,5.387602508230952,1
-0.9615440583393413,0.775334766890849,12.585098239361855,1
-0.6687596997065701,0.311287975879412,9.260160490318492,1
0.3468460182987966,1.369023555323647,13.299846392694615,1
-1.3498408992661386,-0.9027174513321541,13.705969009190145,1
-1.094448349382259,0.06784256356314333,7.890000057687031,1
0.06545644480999734,-0.12116918003366206,10.516191170987264,0
0.11038857560363056,-0.04542512651181305,10.58321465860213,0
-1.2033222642516301,1.8949554661935475,10.888878345662356,2
-1.4697138002593733,5.2918882406941,5.654692344073569,2
0.25869850344392775,2.760777010653777,13.321890061995282,1
-0.02496075641465521,-0.005960629784977401,9.910696329219977,0
0.13807867676876917,-0.02273554086062972,9.23234890319621,0
-2.2822433817344683,2.310280699808004,8.805438017032301,2
-0.13933400559650172,-0.7517833252273685,9.748944990676298,2
0.4924195550673368,1.9490599246996623,11.496094105813327,1
-1.8651901146995127,-3.9188765747394756,14.92886894494093,2
0.1344461951310941,-0.2887324786661329,9.183000712100371,0
0.38694343222851196,0.06839525276981658,10.15944803135665,0
-2.877488215347207,1.246807904650223,3.206823109859595,2
1.7133018207715471,-0.15723054959693278,9.987918604651874,1
0.12222801382391019,0.19212727892851203,9.321879957231062,0
0.2447744472390075,-0.6114777505147941,9.099043857097104,1
-0.33235872179360654,1.3115399632629503,11.56677030298236,2
-0.056401140384588405,-0.4421501131127672,9.510539017523444,0
-0.47605203448854233,-0.17404500985325672,9.861012919771362,0
0.04377103111064591,-0.030002012743386527,10.329016835441195,0
0.5674880643625773,-0.7737859476995638,13.18270917792573,1
1.3528097683380684,-0.31423298486369683,10.643342014921782,1
-0.08359860059420844,-0.08802866172517441,10.195746929651618,0
0.5018474997638256,0.3742808294836176,8.678836304226758,1
-2.170886640878314,-1.8362576748123822,9.023992523193956,2
-0.07111925056765449,-0.04896721454051591,9.649503787759762,0
0.4229442751539918,0.8477987303726603,8.84630889992601,1
-0.6130145652251482,-0.1145346456080456,11.794612775508769,1
-1.008227566318856,-1.7259808276393371,1.6653447385087343,2
-0.0006294974835585343,2.160022060388914,10.988991099446324,1
0.2599816907176476,0.7605931279423719,9.647104088443777,1
2.4469214583138323,3.2099806969196067,3.9938532081814166,2
-0.1603156716351648,0.08604444211509704,10.093024249480424,0
-0.0668841091803546,-0.29416556143695755,9.656735433180042,0
1.8141930965443978,-1.106262968297056,10.892797475693008,1
-6.939030164409907,-2.667808694826334,18.405416414128425,2
3.005956106374453,-1.075059645232339,11.509142275935494,2
-1.5304091280387504,2.0705805569803175,8.824763082898297,1
0.2689168406084654,-0.03198834181015348,8.990106930808208,0
-0.09019293631805468,3.297720633333639,9.178886913310658,1
0.4364173571862642,0.008050576636038418,9.830676485134793,0
2.249728836363918,-2.082679362291703,9.71337382247956,1
6.4429455391268435,-0.48908642485305276,12.771270107043813,2
0.4632101121980159,0.23339863960167737,9.540157174662049,0
-0.007702281461603778,0.1883019852674941,9.90835733417114,0
-0.06091265025727365,0.04786684098398549,10.327049958658497,0
-0.09284617067318107,0.4149536035641262,9.789806017547829,0
-0.14700569697480284,0.31973338129393625,9.241962199594445,0
0.34420998000950065,-0.11086647238495827,9.145776065122828,0
-0.28885125324185246,0.30709748842494994,8.837437793303032,0
-0.20481936187180172,0.09554963079616882,10.44878573057446,0
8.24856240505071,1.7473764960040636,13.63471802157952,2
-0.1350397215022028,-0.12999517864048246,9.694928130301928,0
2.658594954308807,-3.817256840676321,8.54796665821637,2
-1.3436737680796602,-3.989328564716263,14.96586335394564,2
0.0611215051094968,-0.013291568679361161,9.575704848096615,0
-0.11780374498523577,-0.11889451072804946,9.124183435799582,0
-0.12121404084627092,1.1018043866536646,10.61480694852248,1
-0.04893189696323318,0.1758088084810195,9.199544174386405,0
-0.39328424267480655,-3.306833411310662,8.550306730908416,1
-0.8106814611769529,-1.0681284764061845,7.972986317565766,1
-3.6401050757870315,-1.9316866319260786,8.767334162206884,1
-0.2580688763820997,0.2245877677799173,10.564671609018472,0
0.1546332029410721,0.29589817246547745,9.694978155379957,0
-0.13288789487157315,0.07059124844117994,8.966046641985594,0
0.84171397379332,-0.5343626009954827,10.587674096996137,1
2.4444646714616445,0.9839933358144242,16.645935221818945,1
1.2130955220504789,-0.7293132762883682,11.698830933650955,1
2.954585568419601,-5.317469105569685,3.612748628344411,2
2.9407303345022027,2.1650034273520293,14.034269745070347,1
0.2187547964501862,-0.05551818228745278,10.77991263222308,0
-0.17080533776349469,0.09810643094943199,9.606969516792224,0
-0.055705448260664175,0.022938347042886255,10.173248502339492,0
0.36724649742042487,-0.22830581187310517,9.56715845762827,0
-3.309290761442481,-2.964326392529921,10.749226192335746,2
-0.11586242118977491,-0.01647297566154388,9.78231142826117,0
0.026899628109566212,-0.0410211639051429,10.352446350530666,0
-2.0154595028549007,-1.8155648979457752,13.509280758373789,1
-0.10642608613994686,0.2030157077970731,9.7801429562117,0
2.400236090700748,0.019317708470596485,10.451819193248348,1
0.12986440055360127,-0.014486691133306015,5.758560371291786,2
0.7597478815537932,-0.8691971205119593,12.730322690735566,1
0.3945102035391292,0.030480137619800753,10.745177041594152,0
-0.03901305130051687,1.0146551915258712,6.723662011951652,1
1.0706880293745549,0.2876886475399829,2.6873620156151086,2
-0.37491105047894735,0.5095558375129747,7.415918403726849,1
-0.001091621267139248,-0.1614982158959626,10.101245189735264,0
0.015268350701972654,0.07485960171240895,10.374979441645035,0
0.2625070026638212,-0.10029429177151652,9.823963262024487,0
-0.032249402701316814,0.4366989367159357,9.694277146540974,0
7.264089895491339,3.427780155508063,15.525725598142529,2
-0.06823294009924159,-0.0867287466495286,10.13358946311733,0
0.0021117361655743796,-0.16134792327501135,10.294455515256725,0
-3.9895886392874793,-7.250002685429512,9.032362192235107,2
0.12631618357660485,0.12473601933523704,10.20970348809194,0
2.2986114087248604,1.9098076696306447,0.8239828444925923,2
0.01969669074845057,-0.12088350449298113,9.913463258209541,0
-4.368790394322463,-1.6050418178869585,8.339641929523886,1
0.35511949865176623,5.268083057745903,13.944218281689027,2
0.17642048755228432,0.27154256795928505,10.04582704312122,0
0.9375471314656247,-0.5558341118787596,7.564997665231701,2
1.4266191649132538,-2.535769780447524,5.44945847563719,1
-0.5091383734628732,-4.356386006587927,10.107413224761839,2
-0.00894510199733419,-0.06341554685235722,9.883635924252593,0
-4.608874588043026,-0.07656073981892969,7.398928386468539,1
-0.3701425242852439,-0.08546398164751928,9.787456945369614,0
3.0875383270763668,-0.30427455804900855,4.5163739779256336,2
-1.1487328666640004,0.5794648058889569,7.656769612192194,1
-0.17016348353620867,0.027966336695800145,9.750856178465824,0
-1.411032141866221,-0.963115825255443,-1.0948305891220542,2
-0.09857460001084961,0.23094310056005157,10.135791229045841,0
-0.241372819340876,-0.09974131665458773,9.789275461613673,0
0.0587706607703439,-0.1687027241843617,9.578108233642242,0
-0.09113037143506714,0.024903939681898465,9.748912621456505,0
-0.5808514521502434,-1.1857434576048722,10.106265582293805,1
-0.11594394937472885,-0.1938531506238774,9.735031386175761,0
0.24518380737880874,0.7469803513454023,10.118107165737252,0
0.12731957235370048,0.046840216500521274,9.378373218492273,0
-0.6401829642216413,-0.1533947744289254,9.861050138910564,0
-0.09306954260654812,0.06419682501685291,10.269231810384236,0
-0.0909642114839319,-0.07899160317691614,9.146921429644863,0
-0.3953244532048459,-0.25870034523289825,10.200793373351708,0
-5.670828458583921,-3.1765490495529662,7.785387979020883,2
3.7824862666640335,0.3356986210759371,11.194983353394662,1
0.0873571178896964,0.606047515588714,10.298277211887669,0
0.2893873147416863,0.22610188576189932,9.228592964370431,0
-1.8451485913201062,-0.3706867741729337,8.777258770829704,1
0.44719326791549224,0.1846230966881088,10.062203131041686,0
-0.1337895310619638,-0.5861115005269573,11.645822886033766,1
-6.705059140616347,6.893905846873499,14.373056560663947,2
0.16466349554093818,0.045879121181427805,9.945254090349607,0
-0.7147295289553954,1.4051186132969993,6.21968400070727,1
0.3748297977853044,0.07121052121526747,9.824353021208065,0
-0.5301061257939256,-0.7843842014960845,16.377955409504885,1
0.40681366062422075,0.022481963593379173,8.856504901599605,0
4.461455546756583,-3.9488316372522583,7.657071239263049,2
1.390276818700727,-0.35434313809378015,10.057371155520592,1
-0.19819859852189634,2.5831031768157144,8.226366382108882,1
0.46557455857464486,-0.07964201506366603,10.196538863910318,0
0.004913201792419067,-0.06030102376667529,9.8288157258785,0
-3.1803401965019718,7.125228006846197,11.43240689922225,2
-3.054704927869388,-2.684952279633384,9.83673678402231,2
1.1103947054862333,1.0346036678191073,9.150598785669603,1
0.016661201485486565,-0.011259662528615766,9.162914686991638,0
-0.28393341881865264,-0.1441156075223589,10.421674961420408,0
-1.4289833562128176,-0.5917453607731277,11.074564035519737,1
0.19671596028731891,0.612829575527057,15.798856063418167,1
-7.797250002996365,5.12596033326549,16.781332178788368,2
-0.03566700130746666,0.30437271241541003,9.587817878266641,0
-2.8982940575945833,2.1681105708494757,12.810509024014834,1
-0.5878203538846909,1.150103478783744,10.862916913117349,1
0.2383809496710882,3.9397276504584475,12.052799880009006,1
0.03483701120236487,-0.0023926737122118105,10.169675395646625,0
0.13085784422231675,-0.12661380659167001,9.725218735850301,0
-0.20112160398969448,0.3547900522209999,9.135347586081187,0
1.9139297702183842,-2.119776475247204,12.738660237613981,1
0.026970072329505497,-0.16996178627922812,9.73985591376411,0
-1.8932980971132092,-2.3971765677050723,11.531984510880328,1
0.1987859340154229,-0.10674258821057614,9.78989274848745,0
-0.8319053666434356,-0.8167751115619971,9.07536591327466,1
0.05848312407826159,-0.11790040533934887,9.89705237628176,0
-0.8958937135018669,-0.87283051982041,9.22072758365375,1
0.18732266207870374,-0.2997658625807236,8.87808296801489,0
-0.419189978736239,-0.01620819528118785,9.967570659053886,0
0.2958058638623004,0.22075305267648443,12.112040435864452,1
-0.05651801137735937,-2.584175097794073,8.677702499559457,1
-0.14628213960671121,-0.09055941607091567,9.802640123328013,0
0.05175846097316747,0.26832959214596336,9.802970267029446,0
3.418562716737793,0.9226864529384681,11.731748777811704,1
1.2561528564105013,-7.307160036933035,12.145404010042178,2
-0.9999987900860063,-0.4022650404080672,9.278700552654579,1
-0.04669650324230967,0.3310043911341745,9.935372752741761,0
-0.1398657870720567,-0.1618022267054898,10.346679333127938,0
-0.3328146909867477,-0.31729360379541754,9.23527416105126,0
-0.05857485825299202,-0.2891965099278743,9.901917629492464,0
-0.18887855745127932,0.027006859151980624,10.18519659884689,0
-1.0414913224816589,-2.2708386572007475,13.269494255139854,1
1.1401257013181345,1.7024081833870461,17.426332987721867,2
0.1153830116883297,-0.1421629784928613,9.978773877083091,0
-0.28998475836138715,0.4505857745598803,9.349599395764626,0
0.007327422307226503,0.15973128236293,9.137023646167327,0
-0.3461872952820517,0.03107303236827738,8.887869027044639,0
0.019394504012180028,0.20789378295989286,10.522323900893378,0
-0.09991336357582803,-0.25010660515750466,9.377515389773706,0
-0.14323179024662655,-0.44801965208606803,9.946703318225238,0
-4.226356784476787,-1.9496289549223427,5.039993601626584,2
3.6148808029568293,-4.151202165528314,0.947324710094648,2
-0.793808352529884,-1.7308933567727083,10.336806132502428,1
0.32472616595001713,0.15533021647414336,10.146848784157775,0
0.29566231738441223,-0.31944095632938185,10.667573108576054,0
-0.3878854855707739,0.21956364142864226,9.965513412989479,0
0.12044399709068675,0.5268838234223512,10.018378980275452,0
-0.13070537182672615,2.9506073798527415,10.384971105143881,1
1.6064293677310344,1.9791601338057427,8.71930141793898,1
0.44790292980442614,-0.428603481153071,8.635060703110785,1
-0.05660469272881882,0.22147611030710546,10.00233627153073,0
0.8011898655181263,1.134079807550102,7.8656208274618145,1
-0.36764587457756587,0.10305558280264307,5.211385701744583,1
-0.11144997989914047,0.08032130705978924,9.638780266684769,0
0.7405339117769052,4.300538212212193,9.411699399710091,2
1.7613777761005964,-1.5880000768970208,9.5615712556931,1
2.9985079621756983,2.5546123982807343,-2.2188728792400063,2
-0.02591456868130676,0.20282923311411488,9.553717647543303,0
2.261343886538615,-1.6045695392497605,9.548766665198064,1
0.7521388035114208,2.7028463685356123,12.73756737001675,1
-0.863969545310312,-1.5944467150266453,8.728950259533605,1
-0.0016811164361243646,1.099746557578695,17.74048827936946,2
0.28104243453667804,0.13327937213269933,10.238812264718781,0
0.03756444638623598,-0.12257438766359632,9.93223524915058,0
-0.00747952858658032,0.2701263170365935,10.046647677694128,0
-0.409316780355597,-0.033306240726112685,10.49099259831702,0
0.3214665590273109,-0.12509224314909345,9.865673474110277,0
-4.384247501903652,-5.704903626783119,12.748661615513175,2
0.07635037413860357,-0.05758873425051569,9.522373699435152,0
-6.3074619694584495,0.2271926892035575,9.196648506984403,2
-0.6570799734005404,-2.823501706943396,11.086520812929017,1
0.043401432245188935,0.13441273049301883,9.780319092299495,0
-0.2212094296725512,-1.305553744165055,5.174281032474352,1
0.26053711521316947,-0.19807482341011043,10.13331742741967,0
-3.312021449008001,-0.4968556554445307,9.826772009756896,1
-0.323227922039131,-0.13246057976488998,8.898682665417004,0
-1.032661001538079,-1.632873334657948,-0.7745815605405681,2
0.09516850305805263,-0.21342376117683648,10.395849202933377,0
0.08648919639581142,0.14955909773179063,9.334009708883173,0
-6.213302946491604,4.061122157217052,8.886289256457644,2
0.6536787099928975,-0.6387535469312545,12.755673715328884,1
-0.027211247746962458,-0.24599678595324265,9.797977912149616,0
0.027082827055101955,0.08492347206440261,8.76474675051209,0
-0.07490866454763088,0.023490405708278345,10.60676708208056,0
0.6413615555145586,-0.2653977740417672,10.22756667504226,0
-0.2879854784422358,0.1194104262360149,9.280835908956021,0
2.0152870897463173,-2.7504428432881394,13.202820619661576,1
-3.0518680370920217,1.6186424941408883,10.438415148742823,1
-0.07431467285047134,2.1497217387516656,7.571334053374931,1
-0.13811877610941298,0.4516030803996814,9.753555123296467,0
1.3472072979581957,-2.4862543956181837,7.101904219345608,1
3.7731956259751818,-3.645175631233234,3.6913822900213145,2
-2.890846710305237,1.0212958579166074,9.137398793445898,2
0.10149345536395399,0.15286702141680766,8.707640592671476,0
2.4168659590192436,0.5844472270787258,16.550680267375974,2
-0.05520276870153976,-1.1938397859266183,12.50889991771704,1
0.03474660606155734,0.2587148869208348,9.620400925209253,0
0.12521639267916837,-3.158883653924269,10.846909525670888,1
0.18681897618138216,0.24612477708468875,9.106164338471267,0
-0.005439476923867531,0.02038076257703806,10.22215805075216,0
0.3812149845915476,1.993483065439972,6.152612530954366,2
3.092974996882963,0.8744354856593409,7.936624694245668,2
-0.1888504327476322,-0.13248538631422513,9.533880568938093,0
-0.35278074292926753,0.2954843553191128,10.443443195275913,0
-0.23250931980240083,0.16117459486534502,9.291816931307066,0
-0.006130331467889102,-0.0802179183189438,9.696639640073546,0
0.2315661877300705,0.174837306342636,9.348499647762868,0
-4.641371156381278,1.887361436227902,5.8362714978713734,2
-2.8045702190958206,-1.1364014661865312,9.055948232314634,1
-0.23686306385581007,1.2596897035775305,6.13902618649554,1
-0.1244210506566143,1.123229498786348,9.322289439259025,1
-3.7132350512313996,-0.7106969155598811,6.75385139981279,1
0.12212409054728082,0.09711701917856876,9.974296282943826,0
-0.0755754018254915,-0.2245615605456871,8.959525295083736,1
0.14143130804254184,0.2556837287340962,9.847453548362028,0
-2.9901865200602322,0.051448181018039295,9.330645933314763,1
0.2305755545689422,0.18718854329584547,9.12381907418318,0
0.5332278274054366,-2.6571504954095695,5.143628611658299,1
0.15894425137410262,-2.330573554398476,9.839298868288703,1
0.11573676706276799,-0.09488384829435356,9.483961761298833,0
-0.11506980730251469,-0.18503030098232678,10.349237877273657,0
-0.11596623244072242,0.11275657880396911,9.668203826310583,0
-0.18835625095522046,-0.16568530996406736,9.481274215132828,0
0.7419187394451304,0.1423210575489193,10.965739152140197,0
2.3519361970736634,-6.589971208820663,14.975500105754232,2
-0.16907074831519606,-0.16846813789345313,11.159208258170583,0
0.7734614721012041,-2.0886608029741742,14.888012496513385,1
0.04315919948102979,-0.004055675616285649,10.464852565650922,0
0.248486563056191,2.9278777448120317,9.327553032807755,1
-0.14203840078953966,0.19639011826844877,10.529512483718399,0
0.09349152283241652,-0.5178750947482963,9.256965505033717,0
-0.12653503081537987,0.13468581271039434,9.913522357939847,0
-0.12705598533062942,0.061273524562494346,9.248630741008336,0
4.851626775351346,5.12038434834383,13.058917669527599,2
-0.05539718927687898,-0.2989816552504278,10.070055611678912,0
0.13154203331406641,-0.0092388056577954,9.49199530465131,0
2.126753082969515,-2.5696714400798295,15.716113833404615,2
-0.05733606931233072,0.9486574593783037,13.820755913992421,1
-0.18144682534069634,0.095877648115049,10.705784420275766,0
-1.8735054368515471,-6.124582441000886,8.457019087299905,2
0.28385180205797167,-0.011659323852449513,8.886848362131506,0
0.18184481976073405,-0.17650841673096834,9.538982269969699,0
0.20522874881517006,0.019434531488752998,10.659414715729055,0
-0.09567998502030167,0.2797811274777936,10.086733029611958,0
-0.02143031073902938,0.03034460093497587,9.770086110011631,0
-3.971572775411608,-2.181216773662948,14.511545378268243,2
0.462800013989923,-0.008337775853007438,8.94527041284103,1
0.08591522099991562,0.025896861226351188,9.056580335686615,0
-0.0023015844765031457,0.00029813273348573076,9.817496087005546,0
0.11561596851783343,-0.020268229227610162,9.908350196070264,0
0.0008952327339372702,-0.20558879460819474,10.422037100251622,0
-1.3710379743016636,-3.3383393722400596,23.156062728028523,2
1.3016723934390089,-1.854194548813962,10.50322991576691,1
0.010993735147206375,0.2081180343543495,9.08692756821425,0
-0.21475424672871846,-0.6529098292218883,9.64956407381779,0
1.135835435097543,-3.8412744036400426,13.039738237733332,2
0.19256879931966508,0.20351971300066182,10.132357998619643,0
0.004283379288887995,0.1536257939754445,9.887324544980235,0
-8.88790591259189,2.2862817061500267,12.477561013740923,2
0.06569591559917017,0.033654166769890005,9.972258379782588,0
1.9758068221024288,-2.454243259018614,10.24435460424546,1
-1.1214670683482595,2.0310920471985456,11.775698837693392,1
0.019665823973202372,0.07250424678474417,10.618827820116492,0
0.9773518785695765,1.4481919998859978,10.536644288701144,1
0.1302778518967221,-0.0820767100117385,10.45387902517128,0
2.7631472993897805,-0.3674400050742973,2.9236305876593285,2
0.17114158095016252,-0.10057828925710151,10.335593445820559,0
-0.0682002124986441,0.6582892893446616,10.834885266914357,1
0.30160278571436383,-1.215810312454611,8.292906081198913,1
0.06759022500942517,0.02814932631273148,9.392520872519897,0
-0.35801283907310866,0.13893224964458567,9.75357327412387,0
0.10585645572089884,-0.015047408551206707,10.033661762103618,0
-1.307259247898581,1.980374376853121,9.008277998124973,1
-0.006770229351805933,0.08896847004963498,9.966714886386388,0
-0.4438665280798355,-0.19006192107391925,9.833300562574706,0
-2.2442945621214507,0.7516847514673233,11.028008794417524,1
0.26598845979528885,0.053256286705288015,9.938314358765306,0
0.0359874877900274,0.2208134981297373,8.120878641612892,0
0.20899074943945825,0.08498648058341551,10.344114890912318,0
-0.26790469138737866,0.14150208964810343,9.58267555897912,0
0.1067397363026055,-0.14231421343993292,9.842792140849117,0
0.36217594660423025,-0.05882706665242572,9.690060749322072,0
-0.14798250135507357,-0.14978872207087146,9.810073348994845,0
-0.8783963523780958,-0.2824066494050867,9.074747189311068,1
0.052583660996808036,-0.07983353033406193,9.54536127137489,0
0.12499224812629091,-0.4124865981732961,10.423290519628532,0
-0.06511802935880076,-1.6207710667245299,9.933389390133803,1
0.16517657592326362,-0.17201193047866592,9.93405749526168,0
0.9613569500612831,-1.5058796056231774,7.157919938308002,1
-0.23945893883175198,2.3026757446964514,13.151049451634238,2
-0.00809484711624779,-0.00557103794862513,9.653686653926611,0
0.0691700079697788,0.3111596561732197,10.660371631594538,0
-0.0617085799732672,0.3825576986120067,9.39156277556751,0
-1.051606408093336,1.7710181840280657,7.503798758240909,2
0.10917667768180775,2.203361289082239,10.148104587709499,1
0.7788257838930019,0.4515493664064434,7.958155603735372,1
0.021000650161894778,-0.2759224212066486,10.323124923190933,0
0.7051712433949396,-2.377960998754051,9.703155316255609,2
0.9373474418403085,-1.8690951565181084,12.047734963767923,1
-0.25383849197653013,0.20434101993037293,9.739026052247615,0
1.2395479332237156,0.5682368679618426,11.04585569548141,1
0.6700537880576405,-1.4664620070268477,8.649706165111347,1
-0.1286085585105035,-2.553747538301645,10.629527544236197,1
-0.48400893475556717,-0.012317670529647795,10.07984608642128,0
-0.06452052448499045,-0.2713876649313929,8.94390045988774,0
0.031188307476483976,-0.04882179884485611,10.526648847338587,0
-0.12673716230494295,-0.10955936758221035,9.766932883147136,0
-0.05774224021914781,0.019212031824012696,9.460509403875124,0
0.23906871683056968,0.05696970354685883,9.166154295440124,0
-0.5986283420974216,1.7171189561498217,10.338578004373854,1
-0.2386030974472854,0.23499275968577207,10.067383450425769,0
-0.053729514970012215,0.07467122397046093,10.101116440696995,0
0.37773404040895875,-1.6686281354545356,13.578132284673698,1
-1.8458418811902677,-1.6039490926511435,15.876242692553241,1
0.2729345449485281,-0.25019227954369355,9.643623602102847,0
0.2945164006341082,-0.8773330957434781,11.98016394197072,1
0.02092453323580712,-0.05392222240199743,9.18388208895152,0
-2.2688542734651707,2.7885700790508943,15.23714162343255,2
0.3102460647958756,0.22216311415743314,9.62053219886494,0
-0.12226463558764554,-0.7091312729907774,11.96728062445392,1
-0.15859003673206762,0.017022133676825608,9.869867385932723,0
-0.22056102802654365,-0.008551797005934605,9.505313971909203,0
-2.660311085006546,1.1679973574518459,10.932859065446292,1
2.774235087069961,4.270550648717137,13.182519034019167,2
-4.42575911963395,0.07954140858151076,7.507498477802259,2
-3.578447538391208,5.09768323015086,3.449700045702878,2
0.280319739647363,0.11355736915532172,10.41010678958142,0
-1.5090939149408324,1.6786777952662275,10.576919785931718,1
0.9435453803675122,1.0324634142413514,6.257821310471718,1
8.773761009845044,2.0225970219305704,10.503119720576244,2
-1.4940836757115057,-0.5508163584911845,7.63633940252169,1
-0.10351916677318143,-0.19492202293211508,9.765740795612789,0
-2.212469733389526,-1.5573831747826898,5.197885676240969,1
0.06276026143287743,0.05894325118665627,9.541025558408926,0
1.0807644266061782,1.0399483080481373,9.554439777087776,1
-0.1595050206344205,-0.21805627577689457,9.475192327683219,0
0.06525398174300708,0.21584182671692745,10.003802200501795,0
0.20327705427705245,0.009568541984488301,9.557171269596942,0
-0.12877664945098663,0.03151164678376083,9.534106376993208,0
-4.256738273760364,-5.6512599513316975,1.7538979715432852,2
-0.10991392960436636,-0.08049246073481608,10.047830689935251,0
0.09101708996459987,0.09816572397571922,10.026185689356183,0
0.27264072003146567,4.063922593905451,4.311786220633146,2
0.034950242692829155,-0.19833867742180394,9.418140513198457,0
-1.1855919248875402,-1.1233620472517,7.06731243121268,1
-0.1568184343237665,-0.27023210755424487,9.867212416158074,0
-0.04703676774075591,-0.14938629452375335,10.283721412472037,0
-0.1569304231194253,-0.20379074835903285,9.023879514330554,0
-0.07547693313070147,-0.06777958652227904,10.29704010233777,0
-0.012749230353162458,-1.1270625680074495,5.537829652764736,1
1.550569427781409,0.9375131499630507,10.151675746444637,1
-0.15974499376569554,0.3660830346422539,9.90009349414101,0
-0.19355646345255226,-0.21735314600453273,9.475815572361148,0
-0.645883481064469,-5.742080488014224,17.921128187864962,2
-0.11241790300812747,-0.04430427580429664,9.226041216495492,0
0.43331200365918576,0.20169443631863,10.538738826531228,0
-1.2262025495181024,-1.5894959847628047,6.110825001829547,1
-3.2697133926062425,-0.5452966178650781,13.71096301555696,2
0.49573534769260397,-0.20447444068533033,10.232080186528865,0
-0.2504998315382356,-0.17233827494663945,10.534337246599701,0
-2.507260326141682,-2.629531492948396,2.7121891212339033,2
-0.010702035639943819,0.004911800809400425,10.166800107266864,0
-0.06872198318328478,0.10413852874195956,9.558814811507878,0
-0.4209956124776908,0.151303728698575,10.013203785490708,0
-0.8836994492652139,-0.08094846210967721,8.752230705241207,1
-0.5199661285576139,-0.4398675569287943,2.889086489420361,2
-2.255892890832355,-3.7191901698312417,13.493194637961468,2
0.279565759668998,-0.256504253895877,9.74272853546234,0
0.09265342058234338,0.25150483428473436,9.302151547483458,0
0.15129623986767907,0.2752633572647431,10.300432574401752,0
-2.1928643903059375,0.05045804312306931,12.85831397909973,1
-1.099228255665491,-0.26093641606887785,7.575140562429395,1
-0.1489377213232658,-0.03534524051778965,9.606515822095194,0
0.4155384443382173,4.285124138131854,12.45873257304182,1
-0.21884108628501908,0.8847847577751582,8.617358897827483,1
-4.303719309008981,0.7791088190328552,13.932582421121918,2
-6.924986620748514,5.26381154294902,10.352212650986951,2
-0.2776676718896814,0.0070014821798399,9.382915855460855,0
2.26013196758635,-0.1420147616933246,18.881115447847158,2
-0.7678018803128908,1.4076633075230878,18.27467041720042,1
0.08015063348794446,0.39853719042593405,9.376716393061402,0
-1.6816387477806036,0.7036958691522889,13.700953538842214,1
-0.016748699305134424,0.04827582015669599,9.79896345487111,0
-0.1211863550371462,0.0307137289761095,10.649398786768316,0
0.11247304931476157,-0.03921898655398098,10.10892991163413,0
2.741818375839359,-3.5728523315172183,7.602481895984412,1
-2.9693813998985465,-0.5212398390745031,12.893346296612092,1
-0.9007107012316729,-2.784494334165572,10.304842282505666,2
-0.07581152851732502,-0.46061575741882915,9.499834146465131,0
-0.739693991098889,-0.22280176524119427,5.278038991217082,1
1.0665844478901765,-2.125209984661326,9.98270808984043,1
-2.669754104839205,4.970031278151296,4.9595792141077215,2
-0.2919738133276224,-0.0051551881887311754,10.373181409913942,0
-3.2374849508361536,2.231112375212659,16.85874965147309,2
0.007341195013598845,0.39399716058500056,10.423509452540433,0
-0.33332753388248176,0.170221525170565,10.885013971982621,0
0.08174671433255405,-0.4251000380104831,9.574072990227378,0
-5.395741855861288,-3.3885506277908375,7.224915976581457,2
-3.111453080710672,-5.908413977377815,-0.45678793639188875,2
-0.16315094649738507,-0.07400190277912812,9.944589359783048,0
0.10184778010159412,-0.27222508356395464,9.066470094608325,0
-1.5566390955595866,0.7166132134196576,13.68103880517851,1
-0.05642221233537005,0.18993457436816907,9.985433485756992,0
-0.2901432633491187,0.02578655191162306,10.200885823470026,0
0.06713135492356093,0.042817335073045165,9.95445847656503,0
-0.0351468510346956,-1.6653189635198253,11.348606499567122,1
-0.5655490466701895,0.8454459469494171,11.094655427425629,1
0.0926575722955972,-0.16844778717188164,9.940046363562676,0
0.08759047107287868,0.057457152218454044,9.534547319652905,0
-0.5448643103145474,-0.6363166392849063,12.81481572372138,1
-1.7943833006741507,0.23826470865697696,7.417522143892152,1
-0.7942889009474372,-0.5697879413642339,11.904630807337252,1
2.3461413692951556,1.2391548306508513,8.047816580505318,1
4.436316964456749,-5.961777245142715,15.110180270247373,2
-2.1592805891190325,-0.2521762397810424,6.690909794251952,1
0.01533396882132706,0.03217290292081523,10.298283859136072,0
-0.2161309460149616,0.1797409128559475,10.28216829037731,0
-0.20727165092068867,0.4818885953399118,11.691354929373167,1
0.14010221702019063,0.05704741720149671,9.371312770150034,0
0.3149879126092808,-2.445050588579363,12.032287881584097,1
1.8399045761477204,1.8449830544196246,16.623694312150242,2
-2.845791513706133,-5.930478736870321,16.34965534669271,2
0.3104954315296915,0.10332085204981625,10.82842155071836,0
0.08819268221292408,-0.0008687005792450119,9.574389827600609,0
-3.2400895150280196,-2.430798062947004,12.06550232343777,1
1.5974520203493747,2.9027945665144004,15.79216087951467,2
-0.6784590697783803,1.7827042954391492,13.587763842481998,1
-0.004843082981424899,-0.4298645110144735,9.627100392101502,0
0.3490629040346298,-0.007641873108991554,10.02776892623742,0
0.26379701664406635,-0.25095526360194276,10.279342789998907,0
-0.10953039824042439,-0.1967588225286,10.168621784489664,0
-1.7560802473110868,4.2377853052186625,1.6351357552638355,2
-3.7939249598467706,-0.41824656314398745,8.014209426349321,1
0.03630111617620861,0.0067394839835167005,9.834114710019666,0
0.054391804950327964,0.18921063954215347,9.58916230959249,0
1.3651662950200854,-0.06958485286357913,5.940203693441167,2
0.17389235468875858,0.09916325334225157,8.950158250486703,0
0.07853621786003676,-0.023970264059615984,9.680865792413732,0
-1.05867935714374,0.0296650993176135,6.6757709466824195,1
-0.2361315579536341,0.10109693930352548,10.409831390518292,0
0.11095019756907004,-0.07510658513474565,9.189562797507763,0
-1.3500693879825,-2.0613637864729717,3.5361237292154017,2
1.342836613888833,1.9341025809995647,14.077732982989634,1
-1.5985098108979499,-4.906490430382435,3.5020884736669498,2
0.0680992649537942,0.056761827046862,9.611253475542858,0
0.19706166141905473,-0.21860727647966885,9.427630938790061,0
-1.45022273826,0.7438584284179177,9.094166664181621,1
0.4889724697901855,-0.11400792438372528,8.774245967703008,1
0.06852725484568506,0.02413133281382573,9.696679516591164,0
3.6718996615906856,-1.0296335660208773,10.45361644272925,2
-3.2138527343594094,0.14334716796889785,11.694667336695483,2
-0.24273450029853694,0.12935762342784385,10.082914049509776,0
2.956924030126114,-0.9530256939356163,10.965677354664535,1
-0.24648152376626453,-0.3907207066862429,9.572240285164469,0
-0.4295467861714314,1.8768466650485398,11.522110849208829,1
0.03844339062638682,0.17823369651202334,9.531768820576843,0
-3.339709254255545,0.1237876945642702,1.5463160156464042,2
1.7542683758034974,0.9050316615391477,10.087996542442525,1
0.29976318731454077,0.06890845339191431,8.869649257264237,0
-1.2664084399436562,-1.331522905510835,12.557179624395353,1
-0.22082478583634765,-0.07813255240905627,10.560055777133218,0
-0.22164662276335384,-0.06345636498899992,9.490193900929947,0
2.99135389972356,7.393131907337592,-0.1092932011472243,2
0.15933651374760785,0.31502696198974894,10.310783540698294,0
-2.675732584798023,3.3440729474022683,13.53039541540474,2
1.2178168315655498,-0.8493816604550366,9.338798434715448,1
-0.06680951420753642,0.07789217353805032,10.032106108242887,0
-0.3249835582241645,0.08635079634389135,8.225521502517493,1
-1.5578436622416332,-0.8503956407343136,10.042608353166344,1
2.205811632368772,3.6128870111072198,8.62658982417518,1
-0.3562113566718705,0.3503200525064135,9.886321672682705,0
-0.052579821323690316,0.020892391829984605,9.256836045949978,0
0.4209564631064564,-0.3380055968852868,5.154706413906644,1
0.03365472898215604,-0.1501684971352518,9.626609524511897,0
0.0007376823440003257,-2.478242657271587,10.958584312826124,2
2.0109777745126824,-0.8554532195552241,14.092289191833627,2
0.15557903636395315,-0.18820347657633132,7.246851977643779,1
-0.01409554857996885,0.0818008636187998,9.79461863127899,0
-0.08597506204261529,0.351245099366323,9.881532170438811,0
0.3066454531363256,-0.18171164150948582,9.454330322991742,1
-0.2577494025163539,0.2618562034238029,8.280415503713257,1
-1.771775286335747,-6.511206711300192,6.207442893972784,2
-4.7186396965291015,-0.8047920631431367,11.110952027592933,2
0.3625676702394002,-0.5602115766553455,11.733239848205766,1
-0.24354351551620845,-0.15808300871255238,9.941638335359446,0
-0.4002603191915876,-0.09791855629595828,9.741074772754972,0
-0.43731273332241904,3.211666507852185,8.274506387603921,1
2.272306400463913,-4.504403918594129,-1.261210200094494,2
2.5166243329394637,0.18052432489787967,11.239312428050424,1
-0.045799952064445565,1.482749919004705,2.3880773480363917,1
-0.3670131024023117,3.7302389857727776,12.900421391963206,2
2.9370835611751165,0.007511117644054365,12.48907785910561,1
-0.5631865108250581,-0.0367344817261635,9.338111096342585,0
0.06953733609481935,0.08376451832504267,9.67379763159831,0
0.4009462276481552,-0.1226960655969261,10.136544888353972,0
-0.23658707871738796,0.17852427934949355,9.91385724044473,0
-0.12646531315621826,-0.05539094719705713,10.468380984980367,0
-1.9766369113043507,-1.1158803273172033,9.469854351638338,1
-0.17510380701163925,-0.03286818221079724,9.904613452215528,0
0.16385024599196854,0.1764278546652458,10.03034680430967,0
0.08758591496077602,-0.10423588686675062,9.774266475362223,0
-0.1527238403695862,0.4965903579984315,9.562555751753107,0
0.39151905349570293,-0.048804868100027404,9.317906638988488,0
0.20994948706091365,0.017876943814894894,10.435810401350043,0
0.004488486255558879,-0.5269294905744123,9.831276230324601,0
0.028947328549174797,0.024631815226763446,10.102093269950444,0
-2.1679164363084533,1.2211064328328023,9.586585253453975,1
-0.42625005250525644,0.301051989909742,10.467839911817576,0
-0.0499745751842661,-0.222888818977654,10.828067464333607,0
0.15837094393864365,-2.4021222633360724,16.752535142256146,2
0.015221132260821843,-1.2359875594162282,11.574119965004137,1
0.19322254060650026,-7.384828054869414,9.675384994082876,2
-0.1117397547939738,-0.14046985625779337,10.121687920761783,0
-0.04078702556661514,0.1824623096800574,9.380271501593876,0
-0.078733896387287,0.2651106107530077,9.057792372652804,0
3.416161224815074,-8.907230130372197,7.026110475354137,2
-0.12227888224162371,-0.4848072475798893,10.425338988180807,0
-0.13048640468517797,0.140491429885486,10.987630587783038,0
-1.0597483676120745,-4.7767716135070835,3.5631740388189588,2
-0.10883316080530857,0.05019246899650928,11.2215715738808,0
-0.08068172922370288,0.3201303206755454,9.823450821479552,1
-0.13915382195127388,0.046245377945492376,9.829778688021682,0
-0.10875992346825024,0.3274365923841911,9.989189835469562,0
-0.3062668332791081,-0.24088374064771112,9.73810825118046,0
-2.3011445227332423,-3.0130206719548074,8.68292523445637,1
-0.15417106672233735,0.18661016857377072,9.408119823236444,0
0.033003151552540126,0.378174928217978,10.438792882440445,0
-0.45504613602582566,-1.6306505787263945,5.344731916723824,1
-0.374277196918173,0.21033582794918845,9.19157699581126,0
-0.5379176823853943,-5.04686859221989,13.946990269360246,2
-0.2712634410940523,0.06417049720517347,10.306501121266264,0
-0.532978885394152,1.4631106760627781,5.535173373753329,1
0.009526658320477381,0.02877150166878147,9.638815119614108,0
-0.6101824852166726,-2.2457512202319467,15.73936020012436,2
-0.8731504229934933,1.0823698167560343,7.717714269321122,1
-1.6038362512086382,2.382773483114381,10.98396155457871,1
0.036906495020004676,-0.08845757183272042,8.249265148876166,1
0.13619843825657915,0.03282428360309915,9.148920345228012,0
-0.020176406808108515,0.176414037923183,9.011623662272568,0
-2.1291957750411217,1.4490954265618792,0.6213418230272651,2
0.08328461047329799,-0.4833326129669381,9.868235530734946,0
-1.0384385946087942,0.7533786570043732,10.762445088766713,1
0.15818937501160577,3.970877305493491,20.65247608740586,2
3.9079298841146306,4.957670023275382,5.504801712417495,2
-0.022506062848104427,-0.24405714330324446,10.135053355013055,0
0.0613778829818348,0.1081249031607326,9.288367374353948,0
0.22008497584172396,-0.2013169606978957,8.980041273304137,0
-0.2919960024504337,-0.28848513986431595,9.548586653438802,0
0.569901722060824,-1.8264854957767183,13.472094508520044,1
-0.09766360106760076,0.10648409542130324,10.12006661422363,0
-0.047859853779004494,-0.8848010256381948,2.683770893954126,1
-1.097150034470516,2.9530947608200444,12.225604684791552,1
-0.4712433193478065,-0.12570552811708635,9.753760266026106,0
2.864283411051487,-0.8791361453030574,11.981114530509018,2
-1.2857313692685417,1.9229898382023307,8.68585017155703,1
1.0290854214424625,1.8899726705719684,12.086077343152215,2
-0.2130132848331457,-0.3567877052778057,10.135093743112687,0
-0.05011190092876453,-0.19806894803561914,9.690310289042898,0
-1.296730387164441,1.0092163607172269,13.794797858360585,1
6.128702946540246,2.343013831770174,23.37132813482965,2
-0.093460403428859,0.3816134704945787,9.044060216682487,0
0.03291632092457514,-0.016647125929076696,9.841945437514946,0
0.20743466951176798,-0.022373590818416576,9.395937645872891,0
-0.24851105528815165,0.44039260291090143,9.403777116742631,0
0.22200721244790864,0.005501268345662185,9.935579952502035,0
0.08928666150898963,-0.2950046637571699,10.314456446093967,0
-0.05687058038539187,0.28196054007583554,8.962134370037388,0
-0.17423530326094505,0.15478406464381297,10.188013553559218,0
0.09962045967806941,-0.41780331063767484,8.960041982692763,0
1.7996690169135743,-7.41632008254789,12.181562522724175,2
-0.04273936875325116,0.013337556283990604,9.59572645042499,0
-0.03234632624174508,0.21852920186599492,9.979276937570493,0
0.2698731259317939,-0.006924262637407092,9.581071252237926,0
-0.010278839262820192,0.001469265195694864,10.63609748973414,0
-2.13191331095113,1.471380009431031,5.932013830374785,1
-0.06716562154651466,0.17165380337034788,10.283716236700496,0
-2.961728243682966,-3.123175439451834,8.102134050522793,2
0.29894831397159727,-2.4652472271484265,15.114191868167675,1
-0.16842783420851387,0.9427241818147216,9.38614495200379,1
-1.214724745065876,-1.6403716426239932,6.290235334654378,1
0.00824265191272195,0.20166387936147567,9.701194461223855,0
0.16595735789072644,-0.3149202227768019,9.255829431031987,0
0.538878599587149,0.5318328644956789,7.008890203431481,2
-1.3072212680739512,0.5680191011569874,11.38958733153719,1
2.4128156236925435,-0.09652212138804916,10.244000247469977,1
0.2747523190651412,-0.1282151192428825,9.517675024541674,0
-0.15872607014318343,0.11661835459769124,10.441954119517034,0
2.0342226284663965,-0.05693210820400156,12.87233521199251,1
-2.6082721851827286,0.246490619029524,22.684998510448793,2
-1.8721308448683964,-0.823360936593903,8.75379687783697,1
7.582712045926248,6.597130814126881,14.332233159010817,2
0.3439872130824929,-0.028389464341870476,9.879841555463926,0
0.9979399295853446,-0.559005496409146,11.339318231374932,1
0.06815705731996148,0.10803018042568185,8.821302882147942,0
0.15331790471221496,-0.013113400324820931,9.099505658815117,0
-0.697547287327535,0.7150236587189095,11.310014712423477,1
-0.2671365136423967,0.06854536880599484,10.060232296335277,0
0.932997287922499,1.5791118846037873,13.861464764995748,1
0.8033360894419436,-1.9611738835980586,1.9694838334216884,2
-0.06308245138945602,0.42593394128426215,8.814724521842278,0
0.519555710798235,-0.06494103682563694,8.78216573468616,0
-3.9538810480703095,4.539587411563963,8.45071315304629,2
0.19394581668046476,0.28759114655717694,9.678912167807587,0
-1.6835863435325635,-0.9231374170712254,8.850398012694518,1
-0.4344943464121431,-0.3891014413749797,17.363790599772482,2
2.5827830486146497,-0.5628235425657592,9.57949304873061,1
-0.07945997759862942,-0.2476080293418652,10.470149773927094,0
-0.03806656703344888,0.3537626430198382,9.4329239413825,0
-1.621381998117362,-0.15760575005638994,9.110925255447622,1
0.1600081330181602,-0.11671427704419586,9.749344602924781,0
-0.13958703369070116,0.08246294423108208,9.806030483326436,0
-0.6070018328350928,0.10742811671354438,8.03806338460851,2
-0.09254522482387681,3.3679643281703244,9.215780774064186,1
0.09618773405608569,-0.08093132864380408,9.10189699749887,0
-1.992879279001321,-1.6923072979624494,8.457905084880352,1
2.936807981200471,-0.2658446962436086,9.801689793717939,1
-1.2722395166439178,0.220128089859177,13.572877060391109,1
-0.0298109834192341,-0.06599686042124908,9.705124966272468,0
-0.17222001691587896,-0.06270242924941526,9.556942476509832,0
-1.0419821634747484,0.019145002073052666,9.413820904277737,1
0.04133224046203577,0.1718761694781251,9.750348345458908,0
-0.026368572148858262,0.18850264242105338,9.867823303990587,0
0.10066660435797495,-0.17131772574172993,10.060673260143028,0
-2.4923979570808097,0.6334073048639931,6.597570124727083,1
0.24542801750784224,0.5354014913008718,10.406559097972421,0
0.7636051660293272,1.0675450285924224,6.496764945753043,1
-0.05330878651919929,-0.2286691092300171,9.411794935023034,0
-0.13463575845486073,0.29255845372973643,9.798193250406554,0
-0.41587880830174956,0.15297569659269025,9.085047168329167,0
-0.15959584668952564,0.24431948126558442,9.844476561704967,0
0.20216975222353853,0.2502330376751914,9.69952209811586,0
1.341245516286002,6.27813731724596,19.229787079935534,2
1.845355037004954,-1.3105836561837383,10.34318856712096,1
-0.04539863203390293,0.1836257315084846,9.186882929673319,0
0.016855754457295306,0.04687665778151857,9.60661741061957,0
1.5810543494239409,-2.2754391972022314,9.584320000151628,1
0.23374399455505795,0.3058217699819549,9.733536459665162,0
1.85812895777612,1.8234298356689838,10.834351212392159,1
1.7723003399084938,0.19643910150527957,13.190154749320236,1
-0.06327991689590684,-0.3759288146490699,9.587578163626658,0
-0.11942383664953078,-0.08897278283190234,9.249048025095306,0
5.013624802718632,3.1560356413088253,5.458118638094431,2
-2.434638692455145,0.32165818255592904,12.493921326912623,1
1.1832358738146225,-0.9980939281666638,15.525553961320664,2
1.4117113384713718,0.2515626688552639,11.290448456958966,1
1.9609508223457488,-3.9328592422114115,11.75928126256286,1
-4.90054171487314,2.209508398593048,0.41686270488599675,2
3.9554037223731915,0.33492254626609225,15.66931908259977,2
-2.614716435506272,-0.23625697452170846,11.52932085380802,1
0.08610042453073949,0.06268824748177954,9.956477075571483,0
-2.152596197315207,0.457483128601579,3.9680962096860624,1
0.13888036824773703,-0.1136819755135313,9.86440657994542,0
0.13392742366672877,0.7919696531917888,14.308330248985484,1
-1.1318425871956381,-2.6847087152355744,16.855705621881086,2
-0.9159404011200413,-3.6045913388533886,19.174568637334076,2
0.28167129606468405,-0.1166972431236748,8.854614185394983,0
0.05487934316479795,0.21713393850182175,9.57591033190561,0
-1.255255872831004,1.5545423809587406,10.869952604461936,1
-0.05439520999827957,-0.07389953647701923,10.144954587219463,0
-3.79687578752476,2.598610905215794,4.142556661800009,2
0.1744059068058217,-0.03551974027083118,9.796436179969024,0
0.03948924788782475,0.036472406232172336,9.544492733998064,0
-0.0081620423675811,0.03600863670191869,9.398405500472458,0
-0.11603913455037095,-0.13963731894313186,10.297513198024564,0
-0.024481117460879078,0.35003966168346423,10.413308579224257,0
-4.157708732335242,-2.049053586417766,16.472125741717768,2
2.962498189436595,-0.2903537349055196,9.92889090585127,2
-0.5776898898946405,2.642153318685617,11.907330799305745,1
1.3572353587184178,-4.7592760685764635,17.158942796262142,2
0.009172502952346794,0.10099442513666729,9.853065499053763,0
-0.0021903101795154615,0.2964864020225445,10.008459763764844,0
0.052303488159974126,-0.12768305582396933,9.307327613795568,0
0.0019140281417415442,-0.10105150056682183,10.18842109551496,0
0.07329524780048192,2.1724770204630044,10.52141287892009,1
-0.42099055087060544,0.1047778321973491,9.537307494306642,0
-0.19487099662433124,-0.019472769004687904,9.908810841315576,0
-1.7379921101657045,-0.2076728784102434,8.928320897565726,1
-2.0677916797083875,1.8012158412419652,0.6590423157878096,2
0.047581844706467105,0.29203770537474844,10.081760095121082,0
-0.09680028244280113,-3.891228878140465,14.452148632247857,2
-0.06595457240366184,-0.28752660587383994,9.600634674754287,0
-5.574752914804674,5.08821280830621,9.424901531327318,2
0.04992376563642012,0.29541128409338663,10.729936251166658,0
-0.5945561433874942,-2.418544108983072,10.85585120934836,1
0.09911021205546741,0.28838306543599573,9.738898492146792,0
3.3533196896542794,-0.38164978242278785,-2.984489813685604,2
0.25506643527435485,-0.2276567084007466,9.985040044560616,0
0.2723823081632216,-2.816450159006248,8.18388624677231,1
6.87766578917635,1.88094002200676,8.847547871005968,2
-0.247635699386892,-0.018401812228474406,9.434223370570223,0
1.2851364531886968,-3.695062493919076,13.396573695358784,2
0.3639027045525747,-0.26694843970433,10.264146331691192,0
0.26740125331932457,-0.0550666737390219,9.626920793703093,0
0.17448102447219985,-0.2765723029584848,10.900463576641283,0
-0.07168748840411317,-0.18665745862611163,8.84330565718262,0
-0.9481506259545711,-2.672912428569534,19.891755211603133,2
-6.086966943349568,1.4774821731843748,11.120265863100462,2
1.7040593712042456,-1.0191779725741952,6.6905086045071815,1
0.3551804593267193,0.01830042440243777,10.081882637430802,0
0.11892118031473142,0.3474294037555372,10.293386239021274,0
-0.32478752462071514,-0.324787307015594,10.334260416646499,0
3.1060621812833817,2.127940518158062,13.730327860934596,1
-0.09184401923684544,3.4143186908146186,11.78676954903981,1
0.1147643012412021,-0.22356714022173751,10.083859193409214,0
-0.2309100794036959,0.1216491943577121,9.99554946232531,0
2.364839316273397,-0.9345621158767412,8.879024627726253,1
-3.3299568343872643,-3.17737859075824,9.794179305407962,2
-0.003023199657000967,0.0003273605140715803,9.821927934383945,0
0.08676220749861989,0.14461969809892034,9.338615881564564,0
0.18726944641012258,0.05467300363257859,9.480609752324252,0
-0.06500729106940925,0.18092070838341687,10.390381081102245,0
0.10765540974673869,-0.18087707573141376,10.30610719522766,0
0.045326954724977324,2.4088461129632117,8.722723430785585,1
-0.9760506102964406,-0.022059609911565574,11.52224676148412,1
2.188169957465891,-3.5132682730730185,9.584103415640431,2
0.08195404862936677,0.12768974708380812,10.60473733774919,0
-0.164279085181928,0.07945590628306415,9.803320683124301,0
7.125209565353579,5.475337404027652,14.372742011125482,2
-1.5511167266042496,1.442785524131358,7.640565714269873,1
-0.4472953642847108,0.03871020067104774,9.797798205567178,0
-3.0401154328531748,5.032977013926081,9.36259480903255,2
0.24251982764640723,0.3671951599922734,9.253374797638635,0
0.016096388551906534,-0.1959973161203452,9.851305954584548,0
1.6579141909441573,1.939516675036665,5.718967464434856,1
-0.022003300499610128,-0.04032851871572382,9.962161878995442,0
-0.2999860225471389,-1.2019580682978421,9.315892355973093,1
-0.05542475504065778,0.22163013446344393,8.797430152955158,0
5.1265399587191816,2.799552264398172,9.510443312809327,2
-1.1581074651828263,1.8895545812518795,12.015392367592568,2
-0.9549289705516271,3.5555241641076862,17.441813899054765,2
0.012801474239646192,-0.09304281516825029,10.83264068141757,0
-2.07739812812978,-2.584950052401627,11.88227260621397,1
-0.178006467866321,0.12614181165937582,10.27269014252445,0
-0.18111505945154716,-0.09735595050635032,9.636103581885129,0
0.3329415975351737,0.2692293580063398,9.459618373257554,0
0.49218336622000586,-0.1735627888963636,9.850067780226187,1
-1.4727831842715338,1.8821897922719955,5.472323679969762,1
-0.6662481468878194,-1.514751651785322,9.26900738115701,1
0.14657972060681465,0.2799489123363799,10.990072517558081,0
0.3681732420842556,-1.430863432038275,14.408941789902961,1
0.07704977150693294,0.0962054352268012,8.91290162845983,0
-0.03216806846656037,-0.11545995128453142,9.568220371173366,0
-2.0935526273219236,1.631171954214877,9.963910963025812,1
-0.046045313905108694,-0.022192165147850693,8.48240438828858,0
-1.274122380369998,-0.8338137114883012,4.888925624628323,1
-3.056027519827878,0.8350422226991394,7.36468085017968,1
0.39519675151685996,-0.4073353250625671,9.353509907054077,0
0.012377073921321636,0.15388367897727429,9.680030397994637,0
2.7678562562340683,-2.9930506189905413,8.764063427009235,1
-2.105545464710598,0.38721792372806574,8.587184384049241,1
-1.441905640994309,-1.435456852610981,13.471918595751147,1
0.9634727998129886,-0.2307531848872173,9.061940562773087,1
-8.849542650375838,2.4391824774885373,9.141460272987084,2
-1.0046336316641673,-0.4081665844015179,12.423338307284867,1
1.7331786164303467,3.176721877867612,11.580630720931499,1
0.32094198245429556,-0.21254806928382752,9.778490579096408,0
0.04302950539292754,-0.9943770247697419,3.6895305748177414,1
-0.43624170182341593,1.2495152119261954,10.537127224395242,1
1.4821206727958436,1.8644234331645093,7.547430287668148,1
-1.2034876948364759,-2.444168638046457,13.896977212509885,1
-0.29853442565675475,0.11167865872905731,9.651934845534292,0
-1.0237790052373377,-0.6732401164744086,17.595500564308505,2
0.18245986773473896,-0.10707515055699227,9.53739862923492,0
-0.22207840152180444,0.17380964040757763,10.59041704301208,0
-0.44454341039139394,-0.11316197399433897,9.892377100531832,0
-1.299010596277487,3.585235594362172,6.794762262427915,2
-0.06600733982930568,-0.04881698444928836,9.9573182143035,0
1.224287061024772,5.635096484909425,6.725303984581034,2
0.16496170114514,0.31075996401948064,8.726165047354757,1
0.9590504909928044,-1.6491447049404186,9.142386030581985,1
-0.22301414462562053,0.010120109661780436,9.029341255218057,0
2.434005008014627,0.8685101188903342,8.890867657015683,1
-0.664282153949655,0.34250478361007564,14.752819630953237,1
-0.21048888366795013,0.19548014477795572,10.620046624628312,0
0.0635340948574981,-0.05757955622151559,9.382766177039304,0
0.018353704321812228,0.14741684733472524,10.261499715402328,0
-1.1471614370220968,-0.0013509483481001592,11.038812374992126,1
-0.10112601658295353,0.18460813595361691,9.982079440872072,0
-0.06874100085620771,0.31907923124070614,9.003914474798727,0
0.23214040327834465,-0.3202921741045154,8.952593479787652,0
-4.585462251099044,3.6213473962524034,-1.3098782997968712,2
-1.0785198770998958,-0.1588946607431676,7.391580699329501,1
-0.10777727395131012,-0.11330515613198551,9.206793750015615,0
5.116349633234889,-7.269031592665859,3.579645195307563,2
-0.18917456638741678,-0.0706938945948166,9.916028085675832,0
-0.14712141471595533,-0.011381390691120003,10.1909507843744,0
1.9315709282270939,2.330481590982056,6.385376630839749,2
-1.35804269175363,-4.883569382262522,9.793920283058007,2
4.260560103290622,-6.441176471955035,12.120851947951195,2
1.169762044083355,-0.49204504115690306,7.099584493284496,1
-0.07926902740754097,1.3390340479401452,3.625319630001478,1
0.18881659340540316,-0.15981345973175598,9.11943742454669,0
0.06870465928817752,0.06133711685844232,10.007218553857424,0
0.09119773430133542,0.0373608509620014,9.69460386371018,0
0.22699103401780168,0.09081584971854911,10.501309822849404,0
-0.10685645210425324,0.1513128752401225,10.597786806825509,0
-0.05141366286589118,0.21986753552707256,9.29902948621654,0
-0.009208235274235482,-0.3520154895941786,10.489250257112333,0
0.017086931383434683,0.31579233766143766,10.099700397896003,0
-0.018829795664231944,0.14137608204304872,10.421510581953969,0
0.34223344190182187,0.25994031562456,9.533429314488954,0
0.2473914330310074,0.09553511520888909,12.881655532408708,1
0.01461692571499118,-0.32142877683188076,9.545283412188938,0
-0.08321581554601873,-0.17368566644678946,9.736672024692073,0
-1.084077941439635,2.285220006950917,7.133308906939312,1
-0.6000318817497468,-0.058195015567580104,9.679657248425514,0
-0.14497883388363156,0.02418009803731339,10.087484087536371,0
-0.19518258053334153,-0.08181105561094582,10.178446702761628,0
-0.037840084547672855,0.17154390013089857,8.983630170232107,0
5.386817637533024,1.0618578458147045,11.26279607169504,2
0.085305497030681,0.5321443229436349,11.008288556593891,1
0.06766555150823117,0.08613313248157917,9.496040042375725,0
0.06129820174330389,-0.005505590442962423,10.066970084543403,0
0.4991235272047179,-0.6994111999115394,10.355989398622397,1
-0.5976552023637786,-0.23395387434056697,11.852308965247259,1
-4.035594066700761,-2.448297443604052,7.6957153973973735,2
-0.3181989108103291,-0.2464328099094796,9.513191701376021,0
-0.028994532807195578,-0.05628024780590712,10.315808725647122,0
1.9102636374388713,1.2802359310308848,14.610310420080655,1
-0.6181379682905253,-0.7769150999144172,12.569235125062606,1
-0.22104585745622618,-0.25422686434882813,9.286014484874423,0
-0.6827889263392504,2.495974642206384,11.223480897953456,1
-0.27884051923582137,0.0035891008836682254,10.15483016116982,0
-7.652558589430656,4.463288366099383,6.831874580021742,2
-1.029416489955233,-0.3187018062211245,13.578698091181607,2
-1.9280264255423996,0.06533887789403295,8.582908922657039,2
-1.0553190043368381,1.3655957731031723,9.679505189158757,1
-0.14620029595268666,0.033711374044122146,11.111686805828906,0
0.08619497748480517,-0.1951388955833532,9.966459832436767,0
-0.24129827736495826,-0.01821789132026489,9.410593080841204,0
2.0375851619238032,-3.274167317848778,13.905413721202628,2
-0.2691666657026851,0.7348394428094394,12.11835904923978,1
-0.03849822378508458,-0.03973157709411803,9.258442164201517,0
4.854671950031088,-0.2040842250373052,2.6448521742295634,2
-0.042284633877318734,-0.058157268897117934,9.649067030686652,0
0.3516480719088911,4.578680374936598,4.479173737520666,2
0.6507935104827376,1.7884721512101827,13.744861969726594,1
0.8024654124034091,-1.9433931570666898,7.882823376418505,2
0.06637047675142148,-0.33377564171568946,9.13718456592361,0
-4.980803015350466,-1.325664855844702,18.971575163585612,2
0.20646109110421584,-0.2773218008244402,10.64918342130473,0
-0.20286367757256826,-0.0983080415581008,9.840210682379768,0
0.21986683839062593,0.0016827609924524448,10.137979298037958,0
-0.0433769309183618,-1.9492379572434713,12.898759571210672,1
-1.3362010525561152,-1.114269717989108,9.203978716859536,1
2.7274353057337715,-4.799114714853912,13.410032102514801,2
-0.12974411672294536,0.004177305519616463,9.331471708699416,0
2.2998326256841923,-0.7328982399233201,8.41739672652431,1
0.21210037760726733,-0.2056689604588265,10.70210155889456,0
-0.41323069492682535,0.13721898659754816,9.571707134680256,0
0.3662647770239327,1.5809803258068715,7.065501705905669,1
-0.3248890430510131,0.2606344323657615,9.250019695633313,0
-0.35496011157878415,-0.06612451438887132,10.760619294253747,0
-4.74752900114374,0.7005941018645047,6.163152369872277,2
-0.8372445939838116,-0.4152864437850763,14.728090141433476,1
-0.38014097449918455,0.11242262280830656,9.375660879367262,0
-3.8181043428299404,-0.31968142059333965,11.386168121146284,1
0.09921092499215345,-0.06256813340088035,9.412278353704087,0
0.2149281226697941,0.19708920873727856,9.562175191459088,0
-1.2315149333574384,1.2705877059713977,8.073667576483821,1
-7.421395904758003,2.7410139252071195,21.15480545382224,2
-4.17347074845255,4.371913363128332,12.578702273369913,2
0.5998122914323151,-1.3441397790355145,12.792577438193959,1
-5.636862319273484,-0.9604153061800464,-1.9179729246579331,2
0.34423706142261706,-0.02731152595178416,9.89199741910417,0
0.5291439721402645,-0.184175549809894,12.029581686213085,1
0.027076598899549123,0.03741870154898055,9.446853322184323,0
-0.5399465184500443,0.21344534410455146,10.287461776458862,0
-0.8871879478338174,1.2025695009506356,9.585394421772728,1
6.337033613180039,2.8866229206167056,9.86770708998405,2
-0.11319149306691519,-0.04088589717908466,10.126983331409672,0
-1.7953842678601188,0.032444752836633256,9.646018390999433,1
1.4107155371820435,-6.918428148506668,6.173850027868908,2
0.3339748092613189,2.2787449917250577,9.62097188996915,1
-5.809113773951845,4.1069946016180054,10.496904248714968,2
-3.029695446637337,1.8449235400781552,5.311656096175145,1
0.07316835296103753,0.08600720611082313,9.11051609500654,0
1.6387325239996777,-1.0399580912893787,5.154570353817491,2
0.0888760997446495,-0.28036546512883903,9.986170011463987,0
-3.190615547874327,-0.5883892609137901,-0.6419288821283224,2
0.019309527769361345,-0.011652113280558271,10.020389928125862,0
-1.2291689824150405,-0.5976539044134319,7.027340174536065,1
-1.6114498427037736,3.785200632991986,3.710238198789636,2
-0.19073401404571463,-0.30231300215429147,10.158828460566731,0
-1.9549640272932138,-3.0857439069735246,9.271423434979488,2
-0.0685231902629209,-0.32062181485564306,9.324573389218806,0
0.38811100318273933,0.24696871966249723,8.761274372422305,0
-0.16723764844012703,0.13538915957310116,8.411311198333689,0
-7.3044371730597835,-3.297841855129605,5.035935256245634,2
-0.08255051078069334,0.0721847471619181,9.565904368830049,0
0.7419028290825765,-2.781243830867481,8.386144976407492,1
0.18376900213217656,0.474222184826161,9.78588791139056,0
-0.3300156709185868,0.413785230535209,10.826587317680978,0
-0.08364767544464337,-2.6017777863368665,18.497966636551727,2
-0.21020007289764048,0.6314861637396592,9.615112073115073,1
-0.12779243323198197,-0.08355827711863645,9.026569418302726,0
-0.8600303082107067,-0.8382132873791015,9.322021715687397,1
-1.1835104027013088,1.1558879364145696,8.063555553061535,1
0.5148168536992132,-0.1622390232808897,10.234555823738233,0
-3.805729673904714,-0.3239593644443204,-0.6790803995459349,2
0.7997285753309357,0.5867898008165543,11.576056778154936,1
-0.4933128626839357,-1.0195960226142922,11.59259281141754,1
0.2885482260711404,-0.2592145187488918,9.325735789524048,0
-0.46291582029842204,0.1038763176456754,9.839605038556309,0
0.7851313118854228,1.2668107731389977,11.480552885821036,1
0.05473061382218685,-0.10424676080085633,9.621144056965072,0
0.18349374080882963,-0.04281768031470368,9.412020979756301,0
0.02134605725422531,0.040419991436784666,10.382049139650492,0
4.974190236057565,-3.2169104980393497,8.912838951833088,2
-0.08678576254968012,0.0808137887055977,9.12899192983682,0
-3.8500670638313768,3.556925904632348,8.742000949672907,2
-0.07105645264633496,-0.3997678398715563,10.049013105980356,0
-0.39291083340844424,-0.9621398751115298,5.837903964597109,1
1.5862465983188534,5.960579412196742,13.984970328443984,2
8.032644849198835,5.083821076006057,16.13610036013032,2
-1.2819330335427028,3.4327565824322126,12.014975727275113,1
-0.0018134002072205638,0.20992153154551427,9.874085675474026,0
0.008264272008823063,-0.08638246788016096,10.03526354839429,0
-0.026402546604083362,0.25243005697590765,10.664659755014274,0
0.03588798863150957,-0.04048459155932441,10.031474366284499,0
0.5105209350027864,-0.11431427433390733,11.031396057844372,1
0.12220569090849674,-0.3091268987652884,10.349980920743253,0
-1.4574369656590047,-0.761107990190794,11.190237130882874,2
-1.3240217668302932,-0.12592935136128358,11.020717583467073,1
0.12010306282808413,-0.006783133427627754,10.264703099257945,0
0.5241076527616852,0.1695879468940757,10.01240744583952,0
2.01475247394289,0.15307792812921117,16.360095829650902,2
-0.1435852712242939,0.22657107224870485,9.660494065782247,0
-5.876777006293149,2.597750861064875,10.15711672287951,2
0.14576569889828758,0.1503456310239484,9.233683156081067,0
-0.05848641723218565,0.5210220049384627,10.534520955460797,0
0.15717870202409362,0.27681895678549606,3.8312407186011184,1
0.3589685862624293,0.13739603148645646,9.922058267374632,0
0.5177705546695199,1.2518500222417703,6.674662075807612,1
-0.07688600351418207,0.17616481377361767,9.268509986386011,0
-0.027320712201502863,-0.5706133000553056,11.360438509459545,1
-0.7292206047643002,-4.811782292336131,13.82100198038068,2
0.28199250730917685,-0.0035992765850375503,9.651453335790595,0
0.1782638915892898,-0.021141105216160437,10.206183154537191,0
0.2666884630374914,-0.19024773219764635,10.714956746751591,0
-0.8575737838870112,0.5693238756064363,14.094065870637419,1
0.13702708253419668,-2.508814583007719,9.569902388782475,1
0.1695105584307194,0.15384108493863538,9.656887444067307,0
-0.06098513852278629,-0.15358216936325106,9.463113892011965,0
-0.14068136183776936,-0.20866714315186663,9.387064967386834,0
-0.22915160205317903,2.9384491779464703,9.808406040603819,2
-1.572340809657986,0.7774060870949171,2.539081327235598,1
-5.836448714779033,8.635558930308983,3.840341890028392,2
1.617266980107263,-0.18065924728233695,8.522799707833968,1
-0.07829532838517779,0.22382975934681984,10.0736192093635,0
0.3025322079040811,0.0356019434488701,9.02281480969685,0
-0.2867431072886068,0.12852516226766716,9.278924442199175,0
1.2152910289276488,-1.7537976749543334,8.552754670090271,1
-0.08620757270041146,0.22649567213615113,10.122192953801234,0
1.4192090364254923,-0.373503085405161,13.332634848223133,1
0.35366412581628315,-0.503763568517353,10.413952524027682,0
-0.1900534714971318,-1.7094086997280873,13.182568017083277,1
-0.08353687559816972,1.7746462342601002,8.799239111581944,1
3.855956371569065,-4.199669246954175,14.332232838407183,2
-1.7328878184469878,2.143660413675129,7.915487663285971,1
0.19894856097210767,2.15795699270357,10.545732697993703,1
0.18102353523120218,-0.43526006938939166,9.730734450286683,0
-1.439814852757304,0.8358701701566361,8.237386856044619,1
-0.9836877525356537,0.7973446191207259,13.127151515154221,2
-0.9467967677488689,-0.019214920011016184,8.290665277197867,1
0.380012291697828,-0.019208287210478545,9.770428480111507,0
3.8877430559667494,0.5949322398545739,6.439162837866911,1
-0.8449532282881886,-5.697050556676408,11.028956261721953,2
-3.193257959407163,1.0803149791437636,6.477330613849537,2
0.15240491534099132,-0.23974311031564788,8.933740664026786,0
1.0659114322099228,4.4661153228503006,9.446464618389532,2
-0.14762974312580632,-0.15745602785601692,10.38997832366848,0
0.756823371281677,2.3620510484352866,10.59884061328085,1
0.20267397296018888,0.3148963698433196,10.190517382968093,0
-1.789865740570524,0.9981597226550811,6.024733756658145,1
0.05362734405335961,-0.00039209579552481195,8.97523096635203,0
0.18795829152865515,-0.185988503049543,10.142720326793869,0
-3.2795725387714683,-1.5527533383910457,13.617611226396686,2
-1.1021596933268736,-0.1941962410121028,7.818303375502689,1
0.009253819149374048,-0.17384619071799018,9.58209555043795,0
0.0015776926875914954,1.5900344449216828,9.039732045606216,1
0.4345934510595191,-0.013814260417381947,9.940091379740014,0
-0.07225546399279742,-0.33450706369090477,11.719388817059006,1
-1.3115731405075155,-0.7075515882044469,9.615739570544317,1
1.0681769959165508,-0.521229357375941,13.45050743879776,1
-0.39979782406316305,-0.010088420192879144,9.486266254045226,0
-0.22909642478577208,0.20284817253522808,9.898181068079024,0
2.866690608760016,-3.4419602829114035,20.644617076484217,2
-0.8751684885688922,-4.957470093947286,9.62176339772749,2
3.145148516675726,5.735445479886394,7.746745458023255,2
1.1107634447584676,-2.0476144100781735,5.193197284348644,1
-1.7777059889751148,0.8889092383369046,7.895180134081752,1
1.024317018336939,0.8073264982813231,11.103039817547963,1
-0.5109664416099599,0.15681895595072665,15.796494717186173,1
0.37275396271548106,-0.06637533602553351,9.36069007201037,0
-0.056383087145634656,1.292149806449333,6.706515217427513,1
-4.931829888527951,-0.05700622849664906,10.585113228761669,2
1.6572683842040763,0.9263505755406609,6.599349496033803,1
0.0275933949532365,0.06812959822670793,10.355287243526584,0
-4.195288128407992,0.3108280392820528,6.606620178579172,2
1.3768600602323813,5.109626658191681,12.103197076963735,2
0.11577565031601833,-0.1702097153862787,9.351203618509954,0
0.07849763379167335,-0.021995569513324265,10.206037855087892,0
-0.19090323243029872,-0.27264890547740445,9.13985094231773,0
-0.3959288421176555,7.8450858297463,17.239980672678605,2
-0.3320805304423171,-0.7219895526850888,15.165320409578085,1
1.72054267557446,0.22602252228040137,9.746111472125401,1
4.773715778153649,10.534986484384692,6.790887072133433,2
0.18455886055287515,0.09096781485708727,9.611421285786847,0
0.0126452651568763,0.12442379478168275,9.924763583574212,0
0.1465649536454008,0.1819768127218147,9.859434159586707,0
0.17200830677816015,-0.2680686110261327,10.652647754399233,0
0.5602173655220304,-1.1232303629080986,10.34380854835564,1
0.47145461855200566,2.3486195179013887,10.952456311085662,2
1.594823129138601,-0.3663892413230347,7.496908217343423,1
0.35073556572740233,0.021673150664690333,10.446274209755467,0
0.3859273974913246,-0.028671112772274573,10.178142883608977,0
0.09382168320759038,-0.02878285176310605,9.765305205980775,0
0.030505280011007975,-0.11131854542910509,9.73896575307676,0
2.45986611084254,-1.8016424976379655,6.844807409752985,1
-0.06792635204599431,0.2987635793183997,9.274107027048036,0
0.864293810468999,-1.6135740959160372,10.677537424665099,1
0.03624704764679886,-1.7850397594323333,9.330482060002273,1
0.09856104019150576,0.05563637893070919,8.679472015106622,2
-0.30966245588717206,0.0012165112858929898,9.175362345077762,0
-1.6791018563703144,-1.5219067939871773,12.275758474032319,2
-1.195703171238801,0.10759683357121919,13.801546429614731,1
-1.2802056208709496,-0.6203266909332753,9.358646450945628,1
-0.1174909073067058,0.07368138905150391,9.189731252477028,0
0.41626631722893404,0.12175437570001674,14.491214120838585,2
-0.29377512920171095,-0.1549433351487246,9.651988769412878,0
-0.5077402202419623,0.6406909854956606,10.994787188598268,1
-3.5393740877411624,-4.484675059718356,11.163259652535706,2
0.054633011138605816,-0.2725021038768245,9.674578936783218,0
0.7251197963492974,3.7794751170702767,10.881549357571211,1
-0.09642461411429233,0.05898720785762293,9.36869000663731,0
-0.1877256999925863,-0.0981129823538621,9.647863418590745,0
0.07092276894925974,-2.8932096436206667,3.483769317004122,2
-0.2954285162316853,-1.8587047955810032,8.990787666955406,1
1.6975717595974285,1.083004126888583,7.698931554534094,2
0.08779032203975683,-0.011123561702910349,9.293160759064007,0
0.019365165710345023,-0.3139675339084866,9.782564727822647,0
-4.764780041768764,-0.09800403299261637,7.762141179485405,1
-0.9400801962665071,-0.810260038780392,7.1410694341057415,1
0.1208888542687808,-1.69494030480893,7.024650124664468,1
-0.05308377460629711,0.5438364586313259,8.65039310625203,0
-6.767987464147819,3.2212450294880797,14.954199530176814,2
2.802408423594554,2.66934868458614,15.424618977166714,2
-1.05781327887825,-0.3596025996371296,12.35207106435673,1
-0.7888242796256937,9.096353370368636,5.40564120411522,2
-0.16897458827538392,-1.0306464103922448,12.652044908017109,1
-0.30524617204042737,0.3223830125347859,10.176072669410207,0
-2.4641689961930444,-3.6059776301344426,14.7659367634959,1
0.025620670299497342,0.07279134360999959,10.148755905833033,0
-0.011247101994182444,-0.1785980192276694,10.032006120554449,0
-0.29055345615690137,0.0457996975085717,9.34296476766084,0
0.7785613852220806,-0.8855432171361257,10.630218039562184,1
-1.557052578784377,-1.2818262572396093,9.572894750046588,1
-0.06429621173117314,0.08206892853772133,9.98814173062386,0
-0.31717858409473226,2.1081304032329298,4.330503915377389,1
2.0475444924307173,1.8381105503117765,9.803820627870452,2
0.17813554616168992,-0.23435060040391764,9.621169586793437,0
1.5553613499116388,0.25464621384492914,4.31182565538788,1
-4.05178954336523,1.2838341388415435,9.773220378661344,2
0.19926864548226764,-1.658862579313872,7.2458400023407465,1
1.099811435322925,0.04674357468773756,10.627819753402198,1
-0.1961569819407269,-0.41854832073560094,10.269372542599845,0
-0.21534846268916868,-0.011488257181904373,9.272258098216131,0
-1.2348722785275608,-3.5731334587544925,11.269079836325993,1
-0.020417052261354294,0.25073765554277044,10.012303961073858,0
-0.07148376229060914,-0.04970505431916572,9.023178680603186,0
0.0865874997201286,0.027222000868812324,8.765948821436577,0
-0.1199838467890553,0.06607836215919677,10.45576973548883,0
0.18107017356936572,0.23371578391599562,9.12382897447817,0
-1.9244421769553361,-1.9485349206673563,11.1035632881445,2
-0.21656452281478633,-1.2098873016770524,11.538958175790176,1
-0.9823441999344,-2.189302217296581,11.392875706628164,1
-1.1462850571916534,3.9320254402345323,19.3014655073422,2
-0.3989730831371603,0.30577729811551657,9.608859270868853,0
0.46750903109578856,-0.15205445957025832,9.533167673876035,0
-0.06005068220768683,0.23941936368976627,9.167016238586601,0
0.2179875177373526,-0.2046367776145789,9.776883728818557,0
0.1497475864528815,0.19948359578561592,10.723247569970422,0
-3.5527431914291516,-1.4226486212653888,9.190871713026956,1
-2.775096487828611,-1.6708082882398076,10.019051149660898,1
3.151073095345321,2.969645213204459,6.666553764935543,2
-0.7890021185418867,1.112271447327831,13.57283841430268,1
-0.4899550481981232,-1.0503046256143163,11.376678730575394,1
-1.5148743761261962,-0.544732449425738,14.349923211362704,1
-0.13741856415719259,0.13357908924909442,9.997224392397326,0
0.11686969113053286,-3.5887861452111056,18.882362375451525,2
-0.12712132097196543,-0.06224353323213649,9.826613440872178,0
-2.7523083310299334,-1.891205114872899,7.430601729822925,1
4.612533717043002,-1.8819438713662004,12.08775330348623,2
0.15839507613500114,0.47188819184604835,10.19516398798431,1
0.04241073638666019,-6.279310601977627,16.09362757854052,2
-0.22690601855092152,0.16831542081995018,10.547365101002164,0
1.6176758568146883,-2.326867366599256,15.97385567385197,2
2.226008495332651,-0.8610191847515354,11.10455032625068,1
-0.44703979051633475,-0.09487309839713354,9.167760613847335,0
0.09926756249859686,0.13281483363425992,9.741523651045565,0
0.10244598331680649,-0.33153864656379195,9.80995695207493,0
0.03987591457547979,-0.060113659703776405,9.500316830720994,0
0.1063274458015716,0.08283956299669565,10.362748723977369,0
0.7835599418488957,-0.9158303104687044,10.877168608712328,1
-0.04968568816881802,-0.03797648898932175,9.943560673187616,0
-0.2675348555586491,0.000992266687995346,9.894210188717071,0
3.3619656388185986,0.5639687153888351,10.3734298656832,2
-0.3122972453650218,0.053662745274543344,10.641801965528051,0
-0.6308673286415232,0.15155495425595517,11.681584559068046,1
-0.09158887805765305,1.1497896816339006,12.843260769274385,1
-0.19435429475110966,0.021233566388856137,9.205783999354386,0
0.1617031144115788,0.1295349153991789,9.670752338812163,0
1.2985743222754471,3.3363421270398033,7.219528813247407,2
0.018662568573521058,0.06899838534935926,9.421099374073805,0
-0.21613115202499641,0.06124566459811549,9.926576570105665,0
-2.7030719453228116,1.2596576745013564,6.280639162523034,2
-0.12335165735988017,-0.09484789375489029,9.357054876951134,0
0.3394765172286893,0.031727835160631684,10.364976428140691,0
0.6619844508384018,0.22501871526326472,12.234960098852149,1
0.010169035598108153,-0.17151250498694004,10.04793362140853,0
0.2997058479113332,0.17255682457960209,9.656375140139158,0
0.09321983000614519,4.1277423716279955,10.698488765420839,1
0.0044150273923006704,-0.10324507012067186,9.859383895101246,0
0.27774643782445546,0.0872177944383345,9.870456407657452,0
-4.927373201296738,-0.6230242323729122,6.937537512082485,2
-0.045672626970462905,0.21407442504069776,10.384039331562107,0
0.15550201917893508,0.17456739550556127,10.942928430094979,0
0.2312054206668325,-0.24334342319447774,9.615678722148344,0
0.23901003891362282,0.0764797328199231,9.339021166313014,0
-1.9415392304932326,0.7498522162620195,-0.23744562424158033,2
-2.1250536967374596,-1.7401711152684451,4.052584917373183,2
0.10967943811482353,-2.137195173567996,6.359768310102082,1
-0.09774646002647669,0.43914603045637207,9.717485806221763,0
-0.16721641125782627,0.055309792321655095,9.9913178380315,0
-2.903712716904979,0.18145108859258044,9.737551582715588,1
2.0617575867277704,-1.158992101756222,5.816241563473769,1
-0.06277611163941012,0.25172962630527423,9.743084974745528,0
0.13913120321187913,-0.030368011024933795,9.749146366705805,0
0.021932953516547952,-0.005094777885198069,10.190224055574067,0
0.13138584422849728,-0.03603635325087711,10.052282271604657,0
-0.03378527898257102,0.09443359078110203,9.838321873270424,0
1.1041412962846255,-1.414639317235617,12.469345566089089,1
0.4689387770021076,0.01757631595219805,9.692023069698106,0
-1.0349251625894595,-0.03445134557212631,17.38602437566695,2
-1.8681980503055322,0.3514118685492191,10.847741934321835,2
0.2982663139855685,-0.20400624054521074,10.430051010338877,0
0.29788455360162536,-0.12391404602192882,9.169274653837295,0
-0.2490782232352341,-2.7992672332557405,12.828200659772131,1
-0.2849888146243015,-0.01787360797226876,9.23104452821801,0
-1.4570663713310164,-0.21483421167323918,7.3085470477897125,1
-0.14040492297366056,-0.01868276221953297,9.519298853845344,0
0.04955097264677386,-0.014656008284813771,10.163540847538538,0
0.8465781057902764,1.4252493728347786,7.383208572111821,1
-0.1851722422802302,0.33589237114839443,9.066516152214819,0
-1.0293885482248526,-5.525186929793073,2.819375014681274,2
3.2854869272709335,0.5200274355505626,9.642924184377641,1
0.08808435424569658,0.0052665684534174174,9.120089926163446,0
0.28030252897354896,-0.1174232661070928,9.027209400465837,0
-0.010020768208627417,0.6484339332165464,9.837037520203214,0
0.1204579920322336,0.12506224849022937,9.560731718968944,0
0.011584549100075232,0.04890519530185111,10.036703847170573,0
-1.0859669976181485,2.052734102346433,4.870114379778817,1
-2.759645539928538,1.5113928247816162,8.815987636265625,1
-2.025189365997311,-0.3246127121091318,11.153177653956343,1
-0.1755470787963911,0.04321915198867388,9.773858814941551,0
-2.7674144919660346,-1.4990880821987367,17.508084021868946,1
4.343554273343103,-2.5803490200980095,13.019106832122615,2
2.8253436676195567,-1.8195214584081643,8.359953770628236,1
-0.42740082370982746,0.5414863317490155,10.199605344922267,1
-0.09318672034798009,-0.20850017206460777,9.630054642500033,0
-2.3942875080291475,-2.4734813979144556,7.519066066823351,2
0.014647249521583909,-0.2066438366225516,9.045878387525415,0
-0.03183164236133939,-0.08750655467007806,9.151810293330183,0
0.09240145858028188,-0.2437400783432393,9.140274034905923,0
0.5170185128257716,-0.8439041071840621,9.67388248807244,1
0.27610713518803837,-0.17424781569526976,9.242896501053107,0
2.3712707384680063,-1.1940062908758569,17.512407808481658,2
1.271532598893134,-2.6432077464902903,10.927350394137674,1
-1.5179129998798462,-0.44473454867612544,13.402433847264358,2
-0.3021026452148963,0.013242581008633706,9.999770362020385,0
7.952944133400229,0.1775649037557564,8.514544132425929,2
-0.1535302841677346,0.306034630693919,10.272870492767323,0
-0.17116613673589165,0.039855899162404194,9.637541871797783,0
-2.006138863815636,-4.835764840318098,17.095150339642394,2
-0.41194593429414933,0.15427683344804333,8.695803672333518,0
-0.16941049245276316,-0.046468034829081156,9.86116436106224,0
-0.2510659390003311,0.14736026350006295,10.53625496515777,0
-0.5029632728251354,-1.9271060578854864,11.775899738306299,1
-0.24876938299746149,3.9678561007494206,1.7173167245826484,2
-0.29687563175310866,-0.13929497153867426,9.61365077177447,0
-0.3054977274082325,-0.1469644953742965,10.63522637095849,0
-2.753784867385877,-0.09157305906275516,6.462943579292839,1
-0.08346700103663048,-0.10240327557632922,9.440777806779145,0
-1.313701481133041,3.3624469206425363,-2.485185200975579,2
-1.5516228354556174,3.086911012037172,9.673036365016946,1
-0.0631626941017646,0.02546826167092302,10.032576765845846,0
0.07947170587622981,0.10386682819994016,10.2021293495742,0
2.848251118103065,0.4308569945165268,22.136202726109197,2
-0.2778235712342456,-0.06278374403125256,10.548223784928444,0
1.1188388212658005,0.49279050550461323,10.52021683270555,1
2.2566651617513913,-2.1677070141518247,6.891484801688674,2
0.16930323154758525,0.5976150575719004,5.476024847777474,1
-0.957972884740471,-2.366544886414541,11.267755171366456,2
-1.0423886395236512,-0.12029156005131605,13.90011163420558,1
-0.3737581770527723,-3.9695432958675276,6.935183697315928,1
-1.3799694831362128,4.028625029828915,11.970832845777132,2
-0.1549412229017677,0.024355748380516695,9.432014138750244,0
-3.3401828167079994,-1.3768340507729837,13.704609313939507,2
0.22961997161828412,-0.011094895038182319,9.34173544430367,0
-0.5573840036024715,1.0338133128811084,11.431710962651373,1
-1.3499364900643593,2.2591292703311967,10.753621270026134,1
-0.20234526826593724,-0.07312554267977439,10.658121630904652,1
1.9060360731260202,3.243059827239777,26.402559281177517,2
-1.3037220625364443,-1.6168497246741922,7.548113060069869,2
-0.1152527587839035,-0.3838471220062414,11.390960962253056,1
10.338160032602696,4.061887748345352,6.534003420572217,2
-0.5726649340543017,-2.375296171168639,3.2914453763976823,2
-3.9499181919930457,7.643153124892254,10.349249386946024,2
0.06376883229854502,-0.1740014015001965,9.549595016454248,0
-0.11864409246494159,-0.2998414353705585,10.266497280861705,0
-0.014440180305512107,0.021496942730564735,9.209939083133847,0
-0.015602385386183887,0.2832790038804204,10.148733177489342,0
-0.12342824956273105,0.15467488847898492,9.643089753993225,0
-0.14198097987532923,0.04166660444775546,9.349506929973213,0
-0.4034418647637137,-0.934933401628109,5.722797032816197,1
0.27831986149595556,1.3209580966444434,17.22654512091993,2
1.8090565069881421,-0.3361538271433829,11.59478179076464,1
0.015062713786059476,0.3908827323163598,10.0446726824736,0
0.03084090908715462,3.392868145546858,15.452864388960643,2
2.0544274300951155,0.483542987020945,10.906711083062902,1
-1.2943224263340634,-0.8012736285618385,8.1010032238847,1
1.3480712777133665,-0.11283963641519776,11.59088483340905,1
0.8157453431396657,0.17470866354318282,6.254876076874686,1
-1.3494738103115305,-0.49057512742836545,7.527636441794847,1
0.08742407738792328,0.20760010605486864,9.072638909321517,0
1.4400155585731218,6.500744664469678,6.7739459714131804,2
-0.10372002996228974,0.08112027634212109,9.835241584531268,0
-0.5411783885658479,1.227091921948484,6.311832433274733,1
-3.218095599162404,-0.33929242242984237,9.13253251118891,1
2.399099189049845,3.3080453947217445,9.010831432309246,2
-0.9538434796219134,0.5906801361539306,12.142792681771732,1
0.0512036459611652,-0.020240264237702966,9.652653314191031,0
-0.15748418716450815,-0.009955701126727853,10.096179740976858,0
0.19880375105776882,-0.21618052735379767,9.738050687676528,0
0.4654163511461376,-0.027370692092368393,9.800532593949109,0
-0.2189446160633846,-0.235084168128318,10.239895593564848,0
1.0379053312588178,0.5133896367090914,12.125329769964459,1
1.5968536441059582,-0.11807890064272097,6.46637137509688,1
-0.12191992359920045,-0.12600917897094838,9.682898004135646,0
0.43775993294457277,-0.3798709122080374,10.0630394399099,0
-0.37742620035974633,0.651499597802523,7.692929792563993,1
0.5321967294164043,-0.022945974273541097,9.706271604103565,0
-0.09490480781369265,-0.037798351014119005,10.595504226976045,0
0.1705505934636738,5.263959242376743,12.177010818809755,2
0.9202112578170025,1.273596444227047,6.6179750005090945,1
-0.03596207065440108,0.1738623456399409,10.535292060605578,0
-0.10189047897700357,-0.24424190050951966,10.425358084765277,0
0.589025106491246,-1.4804018978796667,14.171897949691669,1
1.004787889062639,-3.6572164739493878,15.5569579328866,2
-0.13179565216981878,0.0866953403060211,10.107340167666644,0
-0.020519171160869036,0.23200359126769785,9.710437675763147,0
0.4257474102228934,0.21029780400465825,9.686859359272432,0
2.6323782106225653,1.277441045856492,14.119507365031689,2
-0.012475110007481138,-0.7418810672142293,10.702267546606667,1
-0.24876461550579704,0.08438912908493942,10.087009474586063,0
-1.162563408841183,-3.231612488664137,10.478354182898315,1
-2.5711725096204883,-0.9991326937512401,8.147321560642695,1
-1.612926099673849,-1.8463964412636615,12.099444875584165,1
-1.4067721879001565,0.8516479241944825,9.36761876711812,2
-0.32687633266755434,0.31299111803891144,9.810046944456099,0
0.04645785304151966,-0.22650740652462698,10.481635485966981,0
-0.32793992175436587,-0.3059227234742404,11.731409959679617,1
-0.3543640519503054,-1.1174774364433915,14.57051895650526,1
-2.2328233941676467,0.36636631436895967,9.903235386909452,1
0.07068577901762559,0.37404657778497685,9.871457724075993,0
-0.09599104418020328,0.27522266570410014,10.654298702337323,0
0.5214042519723466,-3.0444907437477147,11.465273437218558,1
0.023459437766858406,0.09431445148118257,9.096009508089121,0
-0.1530803953512351,0.0983216119850046,10.213211481643857,0
0.20204395279199006,-0.12863838952449355,10.34172111543312,0
-0.22038121520179224,0.15829524734728673,10.074828864976782,0
-0.16499184717221294,-0.02866485356126198,9.982159965469107,0
-0.14561491896701434,-0.22941113703996205,9.132303607130826,0
-0.06195917397549063,1.125545173395037,11.427775989985298,1
-1.0897712935641382,1.3610887571035084,6.446857253045086,1
-0.009973261917921505,-0.20661903486197036,9.557363360004175,0
0.01875810984255401,-0.42208396865379927,10.130328604917812,0
-0.07863572480760785,-0.035758482015875497,9.432099003824922,0
-0.043801225518543374,0.14035398372448527,9.100456153970978,0
-0.0638844070452918,1.3770430531979387,12.471788389675607,1
0.033283324029332824,0.11569652576884325,9.834180831419102,0
-0.878830909498105,-1.733153391955982,11.344951468299186,1
-1.7632639121235152,0.8951303583546126,9.752357920894012,1
-0.21198103870487475,-0.09850791186332974,9.670122086396258,0
-0.12342831210690935,1.3636903046148179,10.007131584657513,1
1.4110469464396298,1.3133702981482742,10.514540564439178,1
0.149240051302452,-0.030840611286426567,9.150171158303168,0
0.1257904330524667,-0.23799141044647998,9.442782279148354,0
0.20920904293613246,0.013090634639658028,9.75343741389129,0
-0.17410921020444547,0.006233839845841905,10.427957016562045,0
0.05186004263294931,-0.13568795368209807,10.258122580804304,0
0.2664470152285562,0.008557677871810792,9.899203943213053,0
-0.5297437703396171,-1.069641524846335,14.283314593364029,2
-0.032777698024495115,-0.1081362449417777,9.131414060238937,0
0.1458579942248019,0.03826934299879434,10.483666476142602,0
-1.1738589897953933,-1.5246911197994104,4.647312839075081,1
0.1905634802039019,0.11056806010327772,10.199184203783553,0
-0.17677914872841252,0.09190484807499653,9.094237050668033,0
-3.300655551802164,-3.800353532732556,7.0866723978888935,2
-0.09941251565867036,-0.023855339425501346,13.660284088880529,1
-0.05492387171105058,0.043703702052211295,9.374113145554386,0
-2.027670911392935,-1.5550706951409818,8.024086996242023,1
-7.211617724702872,1.2768384149252445,2.413361444107693,2
-0.10063757127802256,0.03823410925779521,9.286361719396956,0
-3.266753373225728,-1.7922741409097642,1.5018497983731791,2
-0.2689883923171173,0.056945831454256524,10.801273871675434,0
-0.017348833275196467,-0.007281887750233202,9.794768524635403,0
0.9804440299574859,-0.147264057287123,8.321845714665933,1
-0.279774807683853,-0.09932695445902495,9.698009285554805,0
4.259370785887963,-0.15639582479134528,6.324692972821189,2
-0.19966403335970828,0.15944751795458947,9.311805891608085,0
-5.24337380446532,-1.9053731479783642,12.687017152300552,2
0.8488357576569022,2.526515636574441,12.40031609556068,1
0.06667049381214056,0.28497060861567663,9.729004989058872,0
1.5503210070155684,4.98681324867675,10.590279562640962,1
0.40844531529402395,0.31090092285540605,13.848355934055347,1
-0.1322368587320323,-0.1597863979107741,10.029744609968583,0
1.5752248012109278,4.186216214311348,4.402683874249741,2
0.28395154217960045,0.004012964380071214,9.93692114206639,0
0.2507592250869968,0.034332731589986815,10.250224916566049,0
-0.3313114945728745,0.1522201606328017,9.867866777244005,0
-1.6864414955198326,0.3355587473014929,12.692541416964495,1
-0.02661243877874822,-0.2753799310370579,10.030494671575521,0
1.84107563465275,-0.9402349138850319,8.67590730349325,1
-0.04801899756786889,0.04267273788805873,9.856420782008012,0
0.6968886501973334,0.2668763361343953,3.63136318457443,2
1.498080164861427,-3.1242267694676134,10.682649542409443,1
1.9932322250171555,-1.1025663498901896,3.9643620881897252,2
-0.5036461768309564,0.07774162521206085,10.402324689928031,0
0.11656918699191854,-0.38398331571731315,10.293534214237296,0
-0.5401780634740458,2.5653679761003687,5.1640870723328804,2
-0.8962152351822928,-1.7649579861016964,11.129731683187645,2
-0.04870403319246662,-0.06824800318549422,10.07564313820747,0
0.1825592930542926,0.17533005082454284,10.098070827028238,0
0.12175109208996265,-5.649048692784402,7.758588155085769,2
-0.6054859629820982,-0.003872011821122346,7.530327342850377,1
-2.593672196209366,2.0080819853407594,6.731118777803628,2
-0.10213303462927469,-0.06904800740655026,9.492393249010753,0
-0.18046524024574742,-0.09009647625409245,10.100105050972871,0
0.019688364518624938,0.17852913340642373,8.565928361371608,0
0.07528744386925247,-0.12100923191947657,10.114873021348036,0
0.07629191264343954,0.06342775718788486,8.897155759008257,0
-1.4571826924800966,0.7652629558799822,10.495903258778647,1
-2.1767814198857924,-1.385615301773505,11.066287008545537,1
-0.29073212000722554,0.198852999498671,10.162154451171217,0
-3.0388928086770197,4.843511943972791,1.5057606828993482,2
0.027950366592410066,-0.07667388100858949,9.809397508660274,0
3.0680486773613636,0.17204841917678187,18.466107202353655,2
0.40128595019442664,-0.09286199487989533,10.539903922811082,0
0.10600904858688545,-0.13006289981761512,9.93558625260412,0
-0.21998603946709794,0.39116707665853667,10.308643182641518,0
0.4114375294159519,-0.04319859389710532,9.090765467264864,0
1.213529941312185,1.7335512318387423,8.059105932425108,1
0.5127939913988331,0.4802481401629024,0.7100219267185253,2
1.3359665083744863,1.832153852504197,11.529502122925026,1
-0.4815548219091779,0.25183582324727155,9.84135720836137,0
5.44042174157687,-2.5027271952670036,8.479661378342733,2
0.9436394862392803,-2.1971038611483653,8.77311897082807,1
2.474553470064417,7.219933981523731,13.907214348178947,2
-0.14097474722700812,0.15090755746276782,9.483746636231176,0
-2.3476039753661033,-1.720432843553426,9.6471003205839,1
-1.113450421815502,1.5655309952645187,9.826639714569902,1
-3.7639578583671893,1.4159063397375564,11.296786211551735,1
0.7527867062446618,-0.16304910159421523,7.479206258663373,1
-0.549092851625404,2.5949512247117634,13.444160999550409,1
-0.24102354784133398,2.3624959956078975,13.546989117051249,2
-0.7279091402862088,0.30908136933393493,9.966601782775175,1
5.3326887054465,-2.5697517842766007,8.69006045981631,2
-0.002237290756547894,-0.10856596539041513,9.701639242324797,0
-0.014960973104727288,0.008536543462853456,9.337822581247023,0
0.5405617196372949,-5.313624647905633,15.85166585220222,2
-0.10193748344013134,0.27622118709374094,10.693240550298881,0
-1.034898785026951,-0.6947184451885342,8.994695789642401,1
0.27587153429307537,0.1339498261559715,9.733666879915036,0
-0.6574303685687393,1.1561550248678516,9.433500935628915,1
0.16353509305063912,-0.051994429263910825,9.714960697570984,0
0.20747180999732603,0.4090173333862751,8.064587204022256,1
0.21935392065965129,-0.245387839906797,9.948073920404335,0
-0.18215413424724242,1.4270559198734383,11.446928118968579,1
-0.04629119595551928,0.07115682277011241,9.249171817028015,0
4.7546816144783275,-4.1558288747577965,15.347439546868896,2
0.28920824442560644,0.07333452881951147,9.303776083147827,0
0.0472606383965383,-0.30812460305250333,10.007120636054712,0
7.697458329402847,-3.61216555216229,13.00223917156776,2
-1.7450194109896913,-0.7525593196735325,7.66951297771179,1
0.48626504205060195,-1.8361649663313682,10.383261875014915,1
2.0841523814754286,-0.4052142533595011,9.767169012715653,1
-0.5631603067912344,-0.004137590496219422,9.301270891223822,0
0.9390230562405739,-0.9236979442868588,11.984494098892181,1
-2.4418268339613203,2.1544803367455474,10.942421955851673,2
6.167663938062435,2.872117348620323,16.027259071213063,2
0.13948682093767445,-0.06151817409101804,10.537396236847188,0
-0.2792386629530003,-0.03401392751981542,8.8946417568791,0
-3.551883803918184,-1.6608352791887802,0.7421590681246073,2
-1.7243149976850458,2.5349270518961093,6.89535123208486,1
0.16484087502026631,-0.02856038614025848,10.262085351408091,0
-0.15414967016960074,0.07153969876660021,9.310696667864294,0
0.06192247613800607,0.3296887673466126,9.68913122365224,0
-6.8344646672154274,-4.070620089530058,1.6484694173832217,2
-8.84862569122298,4.954141861628651,2.665709541125441,2
-5.510737813970719,0.8312087935966288,-3.0971072164307607,2
0.3150347358701378,-0.17017579547790135,9.346324369487403,0
0.3316002363879572,-0.10906060229644501,9.445876315537452,0
1.4401810520832037,1.1757801158120709,9.526485118814927,1
-0.061159917265499956,0.21767175297927588,9.563757433026634,0
0.3155931574881143,0.04636696584176951,9.764405019247922,0
-0.2236531483627326,-0.32541056496282,9.368722164431299,1
0.10375085685936546,-0.15297871156789178,9.724122830718764,0
0.07232870995893369,0.07558887110283591,11.871067737236718,1
0.8152834677568797,-0.5837937117790349,12.713001005560397,1
-3.865868991298381,0.9081211817309734,17.728680257909886,2
-1.6535574204301495,-1.2382747494515867,10.671043719413765,1
0.2464973289399155,-0.055450608359170865,10.767581305036156,1
0.39524422895183764,-1.649767111151864,8.577743366161815,1
-0.020191008643497037,-0.03282190901543169,8.877111499923279,0
5.323990714718682,4.354179612236956,18.073108726138138,2
0.3486114211723213,0.15074718402950638,10.33228823337327,0
-0.904994454177474,-1.0078418709401553,6.906977860817851,2
-0.2742849040701858,0.1462841310775016,10.673491775302022,0
0.3402132573672517,-0.08010413445875122,10.164462614051939,0
-0.07030961365069058,0.22633992276593318,10.834234332950139,0
-6.517189679607199,0.6462319531775468,10.54891359821546,2
0.16846217657463688,0.2822341156684941,8.960454939849535,0
-0.022237673557631857,-0.34821873709905204,9.510609215181697,0
-2.121289744187926,-5.611245774262233,19.916640373857298,2
0.008181926266088168,-0.09939928073593979,9.73684934713218,0
-0.07584924735775593,2.273116197263331,12.2554545951046,1
-0.2085092378361625,-0.03567773790175639,9.848258169438939,0
6.327709155619885,1.028262639046216,6.449808490656472,2
-0.00042840282223546877,-0.03399073498284065,9.917793229644833,0
-0.010592224869552755,0.21002818909475807,10.400915708947533,0
-0.40903721534989074,-0.008662330414286733,9.906132552406442,0
-0.03121612291099425,0.34779441922230586,9.463660713610828,0
1.2736731361230706,4.34872796206821,8.077477881744057,2
0.5348037074102905,-4.8375747474500255,4.612271920344213,2
-0.3199152194338544,0.21996396340070734,9.568698999386733,0
0.11214272280511331,0.11980314134533326,10.234916441998285,0
0.3582116451550026,-2.500929697013289,18.716968676554064,2
-0.21119659009924502,0.2569849615333055,9.847613420619885,0
-0.2248042060926208,-0.2157806343394603,9.188046552836365,0
0.13826305117040238,-0.17346818045263265,10.562372594615045,0
-0.03688926355046079,-0.03624370152565797,10.364930542842647,0
-0.1982306434041814,-1.2286769401659066,8.489762890767587,1
-1.6967140544609145,2.6263270188657364,12.666571797030867,1
-0.5627439049933846,1.6722743710299401,17.437110075505544,2
-0.3118182089934679,-0.3438572917112621,10.706544327220811,0
-0.17918251420669973,0.2980030816111882,9.842661097218215,0
0.13459440226113867,-0.10211912093991027,8.681219055201934,0
0.1668537953318378,-0.13347849628539937,10.176210813676645,0
-0.5537667377551163,1.9214655147897886,7.8982140087413875,1
0.23696075831960883,-0.17833139335745116,9.001739419481757,0
-6.085532678415236,4.008059745394539,2.55415957613228,2
-0.4527777710772298,-0.02814395084623907,9.792735544257521,0
0.15600011487466642,-0.08568094049155717,8.987312493187593,0
0.13994697076082896,-1.0259768067864328,12.73737517386331,1
0.945027082289785,-0.4801052499203117,9.19758631732729,1
-0.11670021227269507,0.04988201754901915,9.709530211888751,0
-1.1700313302811147,-2.200605504678207,8.28799317163528,1
-0.8945619689233651,0.2635429381600138,9.06516243761096,1
0.0935987155142257,0.12518605732197127,9.343280562308008,0
-0.45129975179714166,0.06324381012362028,10.256717623169502,0
-1.0459678842417972,-4.371832372359632,10.186422502321449,2
0.35377628510255865,0.021761898661597456,10.30646475332928,0
0.20405633977701104,-0.34576161345433737,8.792008229794428,0
-0.3597589070699577,-0.22489592451172752,9.593053030802933,0
0.22865563951683332,0.07828039375903612,9.92626288451649,0
6.057778620694884,-1.3878738977335505,8.979615075351598,2
0.09467623197525754,-2.515231687680054,12.033367932452572,1
0.02417078617821271,-0.12370978178834265,9.904710341369093,0
0.1426800214681987,0.09526234021649191,10.147288314766095,0
0.11707070591812752,0.309613144010819,9.615372536289465,0
0.21505004337222286,-0.2879763505637785,9.860947919380667,0
-0.10497462763140111,0.03895211093012679,8.785423315359358,0
-4.927308850960361,-3.1665945260953086,8.433662489619852,2
1.1317620986475077,-1.9689666896048774,9.005511487245766,1
0.5462154791747624,0.17497417602327253,9.236877551734485,0
3.3482082584421153,-0.6025847755098649,-10.55815204749813,2
0.8332953311035738,-1.1424287688188686,13.71954339510256,1
0.26517936939667225,0.05264283695555244,9.44172897462838,0
-0.325292779362189,0.07358371723110228,9.475952307445398,0
0.18523824720277815,-0.2514341447806758,10.469535475814046,0
0.007651214190143321,0.06291928300111019,10.205548200951059,0
-0.7516695125372643,-0.47073271593477484,8.12143449103527,1
0.17272147212954891,0.3095195510820021,10.152983554385804,0
0.16289717506249843,2.478808665870984,10.559713758993091,1
-0.16518035340868797,-0.09786753469752552,10.613889503624803,0
-0.27368151407711105,0.1680904631427089,9.053418848366004,0
0.4309800719760878,-2.9430231485113874,9.71836909115995,1
0.351662175134673,3.276743444678025,10.927910276764184,2
0.1381900002190715,0.003038675388961,9.656919371212286,0
1.781950909943877,3.16494735494808,9.83557264465402,2
0.3092822891089929,0.15141021463124166,9.373848067763642,0
0.18024780731839102,0.1553147937308368,9.514023423213683,0
-0.09424888406712147,0.1227196778409052,8.55821838945069,0
0.06847302258547826,-0.29128917645476904,10.335327185506458,0
0.10411294389134407,0.07939406093493159,9.729886564121292,0
-0.15021897604000906,0.1609040363652115,9.727523156036371,0
0.19122263324620842,0.21881584428650713,9.923844401410522,0
-0.13639326423975975,0.07095732913347218,9.68220777055995,0
-0.1278036176174744,0.251073680620911,9.985710626286705,0
-0.1152310457300652,-0.1622196387070357,9.366660325519225,0
5.149910433215085,2.5032771124093056,18.339761024130333,2
1.177840816190284,3.8419329737716206,11.366944070623886,1
-1.1055088044643715,0.16504943276619105,13.761493116893028,1
-0.27711543195788885,-0.3049825459270982,7.65003667626186,1
3.0564827816163125,6.078647186377853,2.0726601267670857,2
-4.046237700768248,4.168067157419711,10.746506863035721,2
-0.2308109010988236,-1.3435118183795767,9.288232000157192,1
0.07020896541808584,-0.2574452740335139,8.444771178871656,1
0.3013233588545586,-0.08350288981543401,9.964061330887048,0
0.7310451664569984,2.9297757048290203,20.183642606621987,2
-0.4107092413686073,-0.019935962369403714,10.542314400605804,0
0.01943022268109698,-0.4745432909539842,10.080054175730208,0
0.16054710227670452,0.022433355832658017,9.73830608890249,0
-0.024338598715926807,0.09455150362661446,10.053640513673013,0
7.119572388594172,-5.325605835934057,-2.476304711500635,2
3.2194397633122946,-0.6224961239264952,14.824406701548945,2
-0.17903731900295464,-0.14092867017081975,10.100351106536268,0
2.544163489717984,1.2881683362973944,10.847856652523806,1
1.621396613078252,-1.527929215709354,4.896521531426658,2
-0.39277582633415364,-0.055326965771691994,9.922906743903974,0
-0.1276759726492712,0.17200924135831214,10.093967734935456,0
-1.2360271942929562,-1.3230695197243842,13.459458541128829,2
0.10833284850503577,-0.020084874627877877,9.451102447946843,0
0.35337188983661855,0.15159090667745534,9.617554358641867,0
0.18025553142219386,0.05869040536426987,10.05964224512617,0
0.9516367287455467,-0.5829252028528593,10.79157413295082,1
0.008481881587393266,-0.3620130266381016,9.822301742465804,0
0.3468102282815706,-0.0331096632121529,9.523056904067628,0
-1.7017100398292822,5.3050447067184665,5.169720697902868,2
-0.18656281608944772,0.2139026293078592,9.6088966912513,0
0.11633037291176015,-0.42928137038903735,10.452037901708255,1
-2.3028086830270844,6.055949048876869,16.420466029022315,2
-0.6271852349372955,7.085678921088186,7.181879051334432,2
0.9827417427021062,-0.6026524828651885,9.662651461480067,1
0.17389268121734724,-0.29273177093051467,9.797995438944925,0
0.6909139782637828,-2.6323083494623614,9.970279393726422,1
-0.009051910274854469,0.25235532627898144,9.402738867503128,0
-3.2641843560429327,-0.5088764313961921,-6.270853026114121,2
-0.24774758371511935,-0.3075993652020168,10.634497857857507,0
0.02775379284406313,0.09340720865836143,9.2931892515629,0
1.1446700730060388,-2.2504769035053975,11.66362386865448,1
0.06490203239861474,0.059848626366120865,9.293830851562827,0
-0.05074235194294252,0.06844602722680801,9.627848103154857,0
0.26720837855852175,-3.178678369187229,11.548871434116744,2
-0.5361733313400193,-1.3004580087388147,12.061271526992542,1
-0.27162431536472786,-0.08334684835396083,9.508604967872628,0
1.1951449586555303,1.5008738581912313,10.93122709032829,1
1.316789812088731,6.846022862410228,11.329443091685242,2
-1.7634287376097861,-2.2398264129796415,10.409998503502036,1
0.24342337642015185,-0.04325748687907066,9.24327111350072,0
0.15884004042182082,-0.08778612805535792,9.523011950188858,0
-5.423549588147444,7.107305306525632,9.528323602223038,2
-0.12493845199657148,-0.32049215643292295,10.186487520574152,0
1.3082835180999681,-0.4162887559414117,9.917110919655395,1
-0.8678564486572533,1.701507102774175,2.4747236373390997,2
0.2012507808075526,0.33891627229307364,9.844223865169418,0
0.1932256520511929,0.23583704663376304,9.790513982944901,0
2.2260921545857526,3.5056524086510574,9.93239086001617,2
0.009798058736054008,-0.018019493273952816,10.671090090759996,0
-2.7066154746862736,-3.4684769328195824,21.404146902187996,2
-0.1936791159222424,-0.14806504224618622,10.613445308687977,0
-0.03160507152201445,2.2678729209272513e-05,9.833292465593557,0
-0.3661703923252168,-0.4615188879484019,10.915288582936338,1
0.24867045540530672,-0.10676999842985369,9.935128175466323,0
1.5549448412986735,-0.9410793034790339,9.631770619020898,1
1.3728191008390738,-1.214155419708224,9.204363664337352,2
0.12621569636157132,-0.2694682211163405,10.38283198320611,0
1.9468343651045652,3.332653893848878,5.740507463335436,1
-0.20867759561693427,0.09893829935336368,10.811132590788137,0
0.1757538795741301,0.1271721332153439,9.775803516556422,0
-0.16081913159541986,0.11127381188764385,9.778877095866111,0
-0.024728714196695725,-0.0015510417092914036,9.4834903591475,0
0.2501081151569848,-0.008980865764118861,10.297775127236502,0
-0.10562310284826537,0.00442536476771979,10.075181263199015,0
0.35847379909541865,0.36422132181701017,9.850601601150903,0
0.2684105415590347,0.1489086277735244,9.570175422083555,0
1.8921698719010238,0.419013139676099,14.582502376802772,1
0.07752443273024096,-0.13929817696273764,10.066798275187562,0
2.012225881074862,-3.650854592481621,13.834287981811745,2
-1.6859440146362203,0.3332532435776597,3.888046346085301,1
0.5100186077070682,0.04468729444835668,10.444605018952918,0
0.690000043101448,-0.05057841937497408,16.254816896890155,2
0.3991504587152138,-0.6882748363239375,8.864650976264391,1
-0.04685910923750755,0.03194045038744028,10.931242022856432,0
-1.9944513784094515,0.9164735062882539,6.42882877257111,2
0.008480618424942103,0.06379277444385498,9.819853573477216,0
3.791075355891636,2.012636636233719,5.49914903192264,2
0.23015376895570394,0.14791865553182212,10.227967086444083,0
-0.032919077869884024,0.19831196669520817,8.916706663644812,0
-0.20329446783160188,-0.09730451962870913,9.058668278713434,0
-0.01759869439174062,0.43351624583970616,9.466882852690016,0
0.10504717801602217,-0.25184513204202313,9.865761795426598,0
-1.0974849146409948,6.312510248737767,9.549384794023224,2
0.09725121163630729,0.11566233714750562,9.79774832769688,0
-1.907646382244985,-0.14094411205860624,14.34682497354382,2
-0.11048870582673537,-0.07497157045190815,9.856206120697387,0
-1.5229638538783408,1.2521371825908878,11.746652110399927,1
-0.8739963306246662,4.340800568751287,15.635316126447494,2
0.089481781121139,0.022630119038888317,9.762679001242768,0
-0.3505214233266257,0.05957403861855335,10.682104792134535,0
-0.15377467171668624,-0.2979875760812469,9.753816653068252,0
0.9682817290898172,-2.4944685920110614,16.257369806711814,2
-0.09943940254230065,-0.10898519214898938,9.898843764505875,0
-0.8223172781444789,0.16082482239942644,11.049557164783492,1
-1.613947537758213,-1.2953442933142105,11.725245336022427,1
-0.8916717788848506,-2.1027382793567844,12.193775504923707,1
-0.2433390645651938,-0.07476038123461608,9.797711724007549,0
-1.6085503323038108,0.12064342546746973,7.290382672169928,1
-8.257794854773095,-0.8145420955009756,19.214092347634605,2
0.21642408171914645,-1.688189072877729,10.256225728650442,1
0.9312823445340139,0.429213814463134,7.434099138646516,1
0.29032190285818094,-0.2734696653810306,9.690154930926104,0
-0.052545524066552274,0.2357236963750264,10.342244057108935,0
-0.1994559091297053,-1.1121517087758246,14.10306083799578,1
-0.5260420978418069,-0.11230457810575376,9.539663869084617,1
0.6693526816447621,-0.943422865214897,9.14903372651129,2
0.010712573182224945,-0.09551548187412325,9.930335383910863,0
-0.010664822687968624,0.3587666006513776,9.967864195572803,0
-1.0726779908885997,-3.2232620684752415,8.919917386511486,1
0.24042059168015834,0.2534163855529558,9.868691724042076,0
-0.35899245629570037,0.41214376957757426,10.615004733811011,0
-3.6294988094586467,-1.8293116131515261,10.306481194752001,1
2.1654271548163644,0.48559126975314715,10.910100384386855,1
-0.15040491704741055,0.018218273539318288,10.995237915369287,0
-2.211969865940919,-3.6241937802784774,8.186815691956642,2
-0.23114622606844104,0.49455105753232076,9.520590212577863,0
-0.24252291701442627,-0.10868085419662198,10.181750901088694,0
0.1803022871600209,0.2819964506782338,11.06859376357632,1
-0.18379890850604996,0.17146063745346052,9.909588120374819,0
0.16905845606444447,-0.171398624420568,10.480957756923821,0
-0.10351098218328861,-0.030790481079942374,9.91613080192126,0
-1.571059842396772,-1.3347995835914577,3.891750253413929,1
-0.4789973846583193,1.0459184249611326,10.296179655574376,1
2.9085293405129806,0.1422427062428217,7.591088698455952,1
0.38601872210854515,-0.17430928180452912,10.062016087290738,0
0.18411740975411284,-0.1944111992278639,9.82642417886882,1
-0.13054491634722332,-0.0030942996267453978,10.010966771819783,0
0.4354120166973354,0.008641425876455172,10.55140562501609,0
6.214382379444703,1.8937088404799807,18.777731496519866,2
0.17189679345906184,1.5752912491281292,7.466591542912017,1
1.2838559258477762,1.2047456122469575,7.63724906729175,1
1.6978290159387361,0.9163187892500184,11.508151758256394,1
-0.3959768253264762,0.2505253805927314,9.252934555507897,0
1.651554563438565,3.1965040188251805,11.243372121818055,1
-0.010618632094003384,-0.16027825233185788,10.0627394614534,0
-0.48320598142977,-0.2018451589092535,9.913048129702526,0
-0.38464756926509547,6.768897055604459,16.76339556295452,2
